14/09/2004 16:00:00.9 [SBP01   ] Fix32.thisnode.name1.A_CV set to Areia 1 by SC4BP01::BATCH PLANT OPERATOR                          
14/09/2004 16:00:00.9 [SBP01   ] Fix32.thisnode.name2.A_CV set to Areia 2 by SC4BP01::BATCH PLANT OPERATOR                          
14/09/2004 16:00:00.9 [SBP01   ] Fix32.thisnode.name3.A_CV set to Dolomita by SC4BP01::BATCH PLANT OPERATOR                         
14/09/2004 16:00:00.9 [SBP01   ] Fix32.thisnode.name4.A_CV set to Calcario by SC4BP01::BATCH PLANT OPERATOR                         
14/09/2004 16:00:00.9 [SBP01   ] Fix32.thisnode.name5.A_CV set to Reserva by SC4BP01::BATCH PLANT OPERATOR                          
14/09/2004 16:00:00.9 [SBP01   ] Fix32.thisnode.name6.A_CV set to Barrilha by SC4BP01::BATCH PLANT OPERATOR                         
14/09/2004 16:00:01.0 [SBP01   ] Fix32.thisnode.name7.A_CV set to Feldspato by SC4BP01::BATCH PLANT OPERATOR                        
14/09/2004 16:00:01.0 [SBP01   ] Fix32.thisnode.name8.A_CV set to Sulfato by SC4BP01::BATCH PLANT OPERATOR                          
14/09/2004 16:00:01.0 [SBP01   ] Fix32.thisnode.name9.A_CV set to Po de EP by SC4BP01::BATCH PLANT OPERATOR                         
14/09/2004 16:00:01.1 [SBP01   ] Fix32.thisnode.name10.A_CV set to Grafite by SC4BP01::BATCH PLANT OPERATOR                         
14/09/2004 16:00:01.1 [SBP01   ] Fix32.thisnode.name11.A_CV set to Ferro by SC4BP01::BATCH PLANT OPERATOR                           
14/09/2004 16:00:01.1 [SBP01   ] Fix32.thisnode.name12.A_CV set to Nitrato by SC4BP01::BATCH PLANT OPERATOR                         
14/09/2004 16:00:01.1 [SBP01   ] Fix32.thisnode.name14.A_CV set to Selenio by SC4BP01::BATCH PLANT OPERATOR                         
14/09/2004 16:00:01.2 [SBP01   ] Fix32.thisnode.name15.A_CV set to Cobalto by SC4BP01::BATCH PLANT OPERATOR                         
14/09/2004 16:00:01.2 [SBP01   ] Fix32.thisnode.name16.A_CV set to Ferro by SC4BP01::BATCH PLANT OPERATOR                           
14/09/2004 16:00:01.2 [SBP01   ] Fix32.thisnode.name20.A_CV set to Caco by SC4BP01::BATCH PLANT OPERATOR                            
14/09/2004 16:00:01.3 [SBP01   ] Fix32.thisnode.name50.A_CV set to  gua by SC4BP01::BATCH PLANT OPERATOR                            
14/09/2004 16:00:01.3 [SBP01   ] Fix32.thisnode.name51.A_CV set to Vapor by SC4BP01::BATCH PLANT OPERATOR                           
14/09/2004 16:00:01.3 [SBP01   ] Fix32.thisnode.name201.A_CV set to Mst 1 seco by SC4BP01::BATCH PLANT OPERATOR                     
14/09/2004 16:00:01.4 [SBP01   ] Fix32.thisnode.name202.A_CV set to Mst 2 seco by SC4BP01::BATCH PLANT OPERATOR                     
14/09/2004 16:00:01.4 [SBP01   ] Fix32.thisnode.name203.A_CV set to Mst 1  mido by SC4BP01::BATCH PLANT OPERATOR                    
14/09/2004 16:00:01.4 [SBP01   ] Fix32.thisnode.name204.A_CV set to Mst 2  mido by SC4BP01::BATCH PLANT OPERATOR                    
14/09/2004 16:00:41.2 WC4BP01 SECURITY VIOLATION: BATCH PLANT OPERATOR access to SECURITY AREA ENGINEERS                            
14/09/2004 16:00:06.6 [SCE01   ] Fix32.SCE01.PAT15_LENGTH.F_CV set to 1201 by WC4CE02::COLD END OPERATOR                            
14/09/2004 16:00:09.9 [SCE01   ] Fix32.SCE01.PAT15_FECR_L.F_CV set to 0 by WC4CE02::COLD END OPERATOR                               
14/09/2004 16:00:10.2 [SCE01   ] Fix32.SCE01.PAT15_FECR_R.F_CV set to 0 by WC4CE02::COLD END OPERATOR                               
14/09/2004 15:59:55.1 [SCE01   ] Fix32.SCE01.Z301_1_M304_ENB_FORCE_DESC.F_CV set to 1 by WC4CE04::PRODUCTION ENGINEERS              
14/09/2004 16:00:02.3 [SCE01   ] Fix32.SCE01.Z301_1_M304_DSB_FORCE_DESC.F_CV set to 1 by WC4CE04::PRODUCTION ENGINEERS              
14/09/2004 16:00:54.7 [SCE01   ] Fix32.SCE01.Z301_1_M304_ENB_FORCE_DESC.F_CV set to 1 by WC4CE04::PRODUCTION ENGINEERS              
14/09/2004 16:01:13.6 [SCE01   ] Fix32.SCE01.Z301_1_M304_DSB_FORCE_DESC.F_CV set to 1 by WC4CE04::PRODUCTION ENGINEERS              
14/09/2004 16:01:16.4 [SCE01   ] Fix32.SCE01.Z301_1_M304_DSB_FORCE_DESC.F_CV set to 1 by WC4CE04::PRODUCTION ENGINEERS              
14/09/2004 16:01:48.5 [SCE01   ] Fix32.SCE01.PAT15_RASP.F_CV set to 1 by WC4CE02::COLD END OPERATOR                                 
14/09/2004 16:03:16.7 [SCE01   ] CE_M701_ANM_SAFETY_AREA        CFN             CLOSE      CE M701 SAFETY AREA                     
14/09/2004 16:03:04.7 [SCE01   ] CE_M701_ANM_SAFETY_AREA        CFN             CLOSE      CE M701 SAFETY AREA                     
14/09/2004 16:03:26.7 [SCE01   ] CE_M701_ANM_SAFETY_AREA        OK               OPEN      CE M701 SAFETY AREA                     
14/09/2004 16:03:13.7 [SCE01   ] CE_M701_ANM_SAFETY_AREA        OK               OPEN      CE M701 SAFETY AREA                     
14/09/2004 16:03:39.1 [SCE01   ] Fix32.SCE01.PAT03_LENGTH.F_CV set to 2401 by WC4CE03::COLD END OPERATOR                            
14/09/2004 16:03:43.0 [SCE01   ] Fix32.SCE01.PAT03_A_WIDTH.F_CV set to 3601 by WC4CE03::COLD END OPERATOR                           
14/09/2004 16:03:45.5 [SCE01   ] Fix32.SCE01.PAT03_A_NUM.F_CV set to 1 by WC4CE03::COLD END OPERATOR                                
14/09/2004 16:03:59.9 [SBP01   ] Fix32.thisnode.name1.A_CV set to Areia 1 by SC4BP01::BATCH PLANT OPERATOR                          
14/09/2004 16:03:54.3 [SCE01   ] Fix32.SCE01.PAT03_A_GRADE_NUM.F_CV set to 1 by WC4CE03::COLD END OPERATOR                          
14/09/2004 16:03:59.9 [SBP01   ] Fix32.thisnode.name2.A_CV set to Areia 2 by SC4BP01::BATCH PLANT OPERATOR                          
14/09/2004 16:04:00.0 [SBP01   ] Fix32.thisnode.name3.A_CV set to Dolomita by SC4BP01::BATCH PLANT OPERATOR                         
14/09/2004 16:04:00.0 [SBP01   ] Fix32.thisnode.name4.A_CV set to Calcario by SC4BP01::BATCH PLANT OPERATOR                         
14/09/2004 16:04:00.0 [SBP01   ] Fix32.thisnode.name5.A_CV set to Reserva by SC4BP01::BATCH PLANT OPERATOR                          
14/09/2004 16:04:00.0 [SBP01   ] Fix32.thisnode.name6.A_CV set to Barrilha by SC4BP01::BATCH PLANT OPERATOR                         
14/09/2004 16:04:00.0 [SBP01   ] Fix32.thisnode.name7.A_CV set to Feldspato by SC4BP01::BATCH PLANT OPERATOR                        
14/09/2004 16:04:00.1 [SBP01   ] Fix32.thisnode.name8.A_CV set to Sulfato by SC4BP01::BATCH PLANT OPERATOR                          
14/09/2004 16:04:00.1 [SBP01   ] Fix32.thisnode.name9.A_CV set to Po de EP by SC4BP01::BATCH PLANT OPERATOR                         
14/09/2004 16:04:00.1 [SBP01   ] Fix32.thisnode.name10.A_CV set to Grafite by SC4BP01::BATCH PLANT OPERATOR                         
14/09/2004 16:04:00.1 [SBP01   ] Fix32.thisnode.name11.A_CV set to Ferro by SC4BP01::BATCH PLANT OPERATOR                           
14/09/2004 16:03:55.7 [SCE01   ] Fix32.SCE01.PAT03_A_SELECT_FLG.F_CV set to 1 by WC4CE03::COLD END OPERATOR                         
14/09/2004 16:04:00.1 [SBP01   ] Fix32.thisnode.name12.A_CV set to Nitrato by SC4BP01::BATCH PLANT OPERATOR                         
14/09/2004 16:04:00.2 [SBP01   ] Fix32.thisnode.name14.A_CV set to Selenio by SC4BP01::BATCH PLANT OPERATOR                         
14/09/2004 16:04:00.2 [SBP01   ] Fix32.thisnode.name15.A_CV set to Cobalto by SC4BP01::BATCH PLANT OPERATOR                         
14/09/2004 16:04:00.2 [SBP01   ] Fix32.thisnode.name16.A_CV set to Ferro by SC4BP01::BATCH PLANT OPERATOR                           
14/09/2004 16:04:00.2 [SBP01   ] Fix32.thisnode.name20.A_CV set to Caco by SC4BP01::BATCH PLANT OPERATOR                            
14/09/2004 16:04:00.2 [SBP01   ] Fix32.thisnode.name50.A_CV set to  gua by SC4BP01::BATCH PLANT OPERATOR                            
14/09/2004 16:04:00.2 [SBP01   ] Fix32.thisnode.name51.A_CV set to Vapor by SC4BP01::BATCH PLANT OPERATOR                           
14/09/2004 16:04:00.3 [SBP01   ] Fix32.thisnode.name201.A_CV set to Mst 1 seco by SC4BP01::BATCH PLANT OPERATOR                     
14/09/2004 16:04:00.3 [SBP01   ] Fix32.thisnode.name202.A_CV set to Mst 2 seco by SC4BP01::BATCH PLANT OPERATOR                     
14/09/2004 16:04:00.3 [SBP01   ] Fix32.thisnode.name203.A_CV set to Mst 1  mido by SC4BP01::BATCH PLANT OPERATOR                    
14/09/2004 16:03:59.4 [SCE01   ] Fix32.SCE01.PAT03_A_PACK_PCS_PKG.F_CV set to 14 by WC4CE03::COLD END OPERATOR                      
14/09/2004 16:04:02.7 [SCE01   ] Fix32.SCE01.PAT03_A_PACK_STOCE.F_CV set to 5 by WC4CE03::COLD END OPERATOR                         
14/09/2004 16:04:00.3 [SBP01   ] Fix32.thisnode.name204.A_CV set to Mst 2  mido by SC4BP01::BATCH PLANT OPERATOR                    
14/09/2004 16:04:06.3 [SCE01   ] Fix32.SCE01.PAT03_PRIO_S.F_CV set to 1 by WC4CE03::COLD END OPERATOR                               
14/09/2004 16:04:08.7 [SCE01   ] Fix32.SCE01.PAT03_BAR_1.F_CV set to 1 by WC4CE03::COLD END OPERATOR                                
14/09/2004 16:04:08.9 [SCE01   ] Fix32.SCE01.PAT03_BAR_2.F_CV set to 0 by WC4CE03::COLD END OPERATOR                                
14/09/2004 16:04:09.2 [SCE01   ] Fix32.SCE01.PAT03_BAR_3.F_CV set to 0 by WC4CE03::COLD END OPERATOR                                
14/09/2004 16:04:09.3 [SCE01   ] Fix32.SCE01.PAT03_BAR_4.F_CV set to 0 by WC4CE03::COLD END OPERATOR                                
14/09/2004 16:04:09.5 [SCE01   ] Fix32.SCE01.PAT03_BAR_5.F_CV set to 0 by WC4CE03::COLD END OPERATOR                                
14/09/2004 16:04:09.7 [SCE01   ] Fix32.SCE01.PAT03_BAR_6.F_CV set to 0 by WC4CE03::COLD END OPERATOR                                
14/09/2004 16:04:10.4 [SCE01   ] Fix32.SCE01.PAT03_FECR_L.F_CV set to 1 by WC4CE03::COLD END OPERATOR                               
14/09/2004 16:04:10.9 [SCE01   ] Fix32.SCE01.PAT03_FECR_R.F_CV set to 1 by WC4CE03::COLD END OPERATOR                               
14/09/2004 16:04:18.2 [SCE01   ] Fix32.SCE01.PAT_CURRENT_PATTERN.F_CV set to 4 by WC4CE03::COLD END OPERATOR                        
14/09/2004 16:04:18.4 [SCE01   ] Fix32.SCE01.PAT_COPY_SOURCE.F_CV set to 3 by WC4CE03::COLD END OPERATOR                            
14/09/2004 16:04:18.6 [SCE01   ] Fix32.SCE01.PAT_COPY_REQ.F_CV set to 1 by WC4CE03::COLD END OPERATOR                               
14/09/2004 16:04:20.7 [SCE01   ] Fix32.SCE01.PAT04_BAR_1.F_CV set to 0 by WC4CE03::COLD END OPERATOR                                
14/09/2004 16:04:20.9 [SCE01   ] Fix32.SCE01.PAT04_BAR_2.F_CV set to 0 by WC4CE03::COLD END OPERATOR                                
14/09/2004 16:04:21.1 [SCE01   ] Fix32.SCE01.PAT04_BAR_3.F_CV set to 1 by WC4CE03::COLD END OPERATOR                                
14/09/2004 16:04:21.3 [SCE01   ] Fix32.SCE01.PAT04_BAR_4.F_CV set to 0 by WC4CE03::COLD END OPERATOR                                
14/09/2004 16:04:21.4 [SCE01   ] Fix32.SCE01.PAT04_BAR_5.F_CV set to 0 by WC4CE03::COLD END OPERATOR                                
14/09/2004 16:04:21.7 [SCE01   ] Fix32.SCE01.PAT04_BAR_6.F_CV set to 0 by WC4CE03::COLD END OPERATOR                                
14/09/2004 16:04:40.9 [SCE01   ] Fix32.SCE01.PAT03_A_PACK_STN.F_CV set to 8 by WC4CE03::COLD END OPERATOR                           
14/09/2004 16:04:47.4 [SCE01   ] Fix32.SCE01.PAT04_A_PACK_STN.F_CV set to 8 by WC4CE03::COLD END OPERATOR                           
14/09/2004 16:05:18.0 [SCE01   ] Fix32.SCE01.PAT03_ORDER_REF.F_CV set to 251 by WC4CE03::COLD END OPERATOR                          
14/09/2004 16:04:30.2 [SCE01   ] Fix32.SCE01.Z301_1_M304_DSB_FORCE_DESC.F_CV set to 1 by WC4CE04::PRODUCTION ENGINEERS              
14/09/2004 16:04:42.3 [SCE07   ] Fix32.SCE07.EDGE_STRESS_UNITS.F_CV set to  0 by SC4CE07::COLD END OPERATOR                         
14/09/2004 16:05:23.5 [SCE01   ] Fix32.SCE01.PAT04_ORDER_REF.F_CV set to 251 by WC4CE03::COLD END OPERATOR                          
14/09/2004 16:04:39.0 [SCE01   ] Fix32.SCE01.Z301_1_M304_ENB_FORCE_DESC.F_CV set to 1 by WC4CE04::PRODUCTION ENGINEERS              
14/09/2004 16:05:34.4 [SCE01   ] Fix32.sce01.Pat03_A_Send.F_cv set to 1 by WC4CE03::COLD END OPERATOR                               
14/09/2004 16:05:38.5 [SCE01   ] Fix32.sce01.Pat04_A_Send.F_cv set to 1 by WC4CE03::COLD END OPERATOR                               
14/09/2004 16:05:54.0 [SCE01   ] Fix32.SCE01.PAT04_PRIO_S.F_CV set to 3 by WC4CE03::COLD END OPERATOR                               
14/09/2004 16:05:12.9 [SCE01   ] Fix32.SCE01.Z301_1_M304_DSB_FORCE_DESC.F_CV set to 1 by WC4CE04::PRODUCTION ENGINEERS              
14/09/2004 16:07:51.9 [SCE01   ] Fix32.SCE01.PAT03_NREQ.F_CV set to 210 by WC4CE01::COLD END OPERATOR                               
14/09/2004 16:08:00.5 [SCE01   ] Fix32.SCE01.PAT03_NREQ.F_CV set to 0 by WC4CE01::COLD END OPERATOR                                 
14/09/2004 16:07:59.9 [SBP01   ] Fix32.thisnode.name1.A_CV set to Areia 1 by SC4BP01::BATCH PLANT OPERATOR                          
14/09/2004 16:07:59.9 [SBP01   ] Fix32.thisnode.name2.A_CV set to Areia 2 by SC4BP01::BATCH PLANT OPERATOR                          
14/09/2004 16:07:59.9 [SBP01   ] Fix32.thisnode.name3.A_CV set to Dolomita by SC4BP01::BATCH PLANT OPERATOR                         
14/09/2004 16:08:00.0 [SBP01   ] Fix32.thisnode.name4.A_CV set to Calcario by SC4BP01::BATCH PLANT OPERATOR                         
14/09/2004 16:08:00.0 [SBP01   ] Fix32.thisnode.name5.A_CV set to Reserva by SC4BP01::BATCH PLANT OPERATOR                          
14/09/2004 16:08:00.0 [SBP01   ] Fix32.thisnode.name6.A_CV set to Barrilha by SC4BP01::BATCH PLANT OPERATOR                         
14/09/2004 16:08:00.0 [SBP01   ] Fix32.thisnode.name7.A_CV set to Feldspato by SC4BP01::BATCH PLANT OPERATOR                        
14/09/2004 16:08:00.0 [SBP01   ] Fix32.thisnode.name8.A_CV set to Sulfato by SC4BP01::BATCH PLANT OPERATOR                          
14/09/2004 16:08:00.0 [SBP01   ] Fix32.thisnode.name9.A_CV set to Po de EP by SC4BP01::BATCH PLANT OPERATOR                         
14/09/2004 16:08:00.1 [SBP01   ] Fix32.thisnode.name10.A_CV set to Grafite by SC4BP01::BATCH PLANT OPERATOR                         
14/09/2004 16:08:00.1 [SBP01   ] Fix32.thisnode.name11.A_CV set to Ferro by SC4BP01::BATCH PLANT OPERATOR                           
14/09/2004 16:08:00.1 [SBP01   ] Fix32.thisnode.name12.A_CV set to Nitrato by SC4BP01::BATCH PLANT OPERATOR                         
14/09/2004 16:08:00.1 [SBP01   ] Fix32.thisnode.name14.A_CV set to Selenio by SC4BP01::BATCH PLANT OPERATOR                         
14/09/2004 16:08:00.1 [SBP01   ] Fix32.thisnode.name15.A_CV set to Cobalto by SC4BP01::BATCH PLANT OPERATOR                         
14/09/2004 16:08:00.1 [SBP01   ] Fix32.thisnode.name16.A_CV set to Ferro by SC4BP01::BATCH PLANT OPERATOR                           
14/09/2004 16:08:00.1 [SBP01   ] Fix32.thisnode.name20.A_CV set to Caco by SC4BP01::BATCH PLANT OPERATOR                            
14/09/2004 16:08:00.2 [SBP01   ] Fix32.thisnode.name50.A_CV set to  gua by SC4BP01::BATCH PLANT OPERATOR                            
14/09/2004 16:08:00.2 [SBP01   ] Fix32.thisnode.name51.A_CV set to Vapor by SC4BP01::BATCH PLANT OPERATOR                           
14/09/2004 16:08:00.2 [SBP01   ] Fix32.thisnode.name201.A_CV set to Mst 1 seco by SC4BP01::BATCH PLANT OPERATOR                     
14/09/2004 16:08:00.2 [SBP01   ] Fix32.thisnode.name202.A_CV set to Mst 2 seco by SC4BP01::BATCH PLANT OPERATOR                     
14/09/2004 16:08:00.2 [SBP01   ] Fix32.thisnode.name203.A_CV set to Mst 1  mido by SC4BP01::BATCH PLANT OPERATOR                    
14/09/2004 16:08:00.3 [SBP01   ] Fix32.thisnode.name204.A_CV set to Mst 2  mido by SC4BP01::BATCH PLANT OPERATOR                    
14/09/2004 16:08:37.0 [SCE01   ] Fix32.SCE01.PAT03_NREQ.F_CV set to 205 by WC4CE01::COLD END OPERATOR                               
14/09/2004 16:08:58.2 [SCE01   ] Fix32.SCE01.Z700_M704_TYPE_OF_PRODUCTION.F_CV set to 4 by WC4CE01::COLD END OPERATOR               
14/09/2004 16:09:05.8 [SCE01   ] Fix32.sce01.Pat03_A_Send.F_cv set to 1 by WC4CE01::COLD END OPERATOR                               
14/09/2004 16:09:10.8 [SCE01   ] Fix32.sce01.Pat04_A_Send.F_cv set to 1 by WC4CE01::COLD END OPERATOR                               
14/09/2004 16:11:00.7 [SCE01   ] CE_M701_ANM_SAFETY_AREA        CFN             CLOSE      CE M701 SAFETY AREA                     
14/09/2004 16:11:13.7 [SCE01   ] CE_M701_ANM_SAFETY_AREA        CFN             CLOSE      CE M701 SAFETY AREA                     
14/09/2004 16:11:23.0 [SBP01   ] WH9_GENERAL_ALARM_WORD ALARM is acknowledged by WC4BP01::BATCH PLANT OPERATOR                      
14/09/2004 16:11:23.1 [SBP01   ] WH9_GENERAL_ALARM_WORD ALARM is acknowledged by WC4BP01::BATCH PLANT OPERATOR                      
14/09/2004 16:11:27.4 [SBP01   ] Fix32.sbp01.alltime1.f_cv set to 1 by WC4BP01::BATCH PLANT OPERATOR                                
14/09/2004 16:11:28.9 [SBP01   ] WH9_GENERAL_ALARM_01 ALARM is acknowledged by WC4BP01::BATCH PLANT OPERATOR                        
14/09/2004 16:11:29.0 [SBP01   ] WH9_GENERAL_ALARM_01 ALARM is acknowledged by WC4BP01::BATCH PLANT OPERATOR                        
14/09/2004 16:11:29.7 [SBP01   ] MIV1_ALARM_WORD ALARM is acknowledged by WC4BP01::BATCH PLANT OPERATOR                             
14/09/2004 16:11:29.8 [SBP01   ] MIV1_ALARM_WORD ALARM is acknowledged by WC4BP01::BATCH PLANT OPERATOR                             
14/09/2004 16:11:30.3 [SBP01   ] S13_ALARM_WORD ALARM is acknowledged by WC4BP01::BATCH PLANT OPERATOR                              
14/09/2004 16:11:31.2 [SBP01   ] FURNACE_HOPPER_ALARM_WORD ALARM is acknowledged by WC4BP01::BATCH PLANT OPERATOR                   
14/09/2004 16:11:31.3 [SBP01   ] FURNACE_HOPPER_ALARM_WORD ALARM is acknowledged by WC4BP01::BATCH PLANT OPERATOR                   
14/09/2004 16:11:32.0 [SBP01   ] S8_ALARM_WORD ALARM is acknowledged by WC4BP01::BATCH PLANT OPERATOR                               
14/09/2004 16:11:32.1 [SBP01   ] S8_ALARM_WORD ALARM is acknowledged by WC4BP01::BATCH PLANT OPERATOR                               
14/09/2004 16:11:33.8 [SBP01   ] S6_ALARM_WORD ALARM is acknowledged by WC4BP01::BATCH PLANT OPERATOR                               
14/09/2004 16:11:33.9 [SBP01   ] S6_ALARM_WORD ALARM is acknowledged by WC4BP01::BATCH PLANT OPERATOR                               
14/09/2004 16:11:10.4 [SCE01   ] Fix32.SCE01.Z301_1_M304_ENB_BREAK.F_CV set to 1 by WC4CE04::PRODUCTION ENGINEERS                   
14/09/2004 16:11:35.7 [SBP01   ] S4_ALARM_WORD ALARM is acknowledged by WC4BP01::BATCH PLANT OPERATOR                               
14/09/2004 16:11:35.8 [SBP01   ] S4_ALARM_WORD ALARM is acknowledged by WC4BP01::BATCH PLANT OPERATOR                               
14/09/2004 16:11:36.8 [SBP01   ] FURNACE_HOPPER_ALARM_09 ALARM is acknowledged by WC4BP01::BATCH PLANT OPERATOR                     
14/09/2004 16:11:37.0 [SBP01   ] FURNACE_HOPPER_ALARM_09 ALARM is acknowledged by WC4BP01::BATCH PLANT OPERATOR                     
14/09/2004 16:11:39.0 [SBP01   ] MX1_ALARM_08 ALARM is acknowledged by WC4BP01::BATCH PLANT OPERATOR                                
14/09/2004 16:11:39.2 [SBP01   ] MX1_ALARM_08 ALARM is acknowledged by WC4BP01::BATCH PLANT OPERATOR                                
14/09/2004 16:11:42.1 [SBP01   ] MX1_ALARM_03 ALARM is acknowledged by WC4BP01::BATCH PLANT OPERATOR                                
14/09/2004 16:11:42.2 [SBP01   ] MX1_ALARM_03 ALARM is acknowledged by WC4BP01::BATCH PLANT OPERATOR                                
14/09/2004 16:11:43.7 [SBP01   ] MX1_ALARM_WORD ALARM is acknowledged by WC4BP01::BATCH PLANT OPERATOR                              
14/09/2004 16:11:43.8 [SBP01   ] MX1_ALARM_WORD ALARM is acknowledged by WC4BP01::BATCH PLANT OPERATOR                              
14/09/2004 16:11:53.5 [SBP01   ] PCU2_2_ALARM_WORD ALARM is acknowledged by WC4BP01::BATCH PLANT OPERATOR                           
14/09/2004 16:11:53.6 [SBP01   ] PCU2_2_ALARM_WORD ALARM is acknowledged by WC4BP01::BATCH PLANT OPERATOR                           
14/09/2004 16:11:54.2 [SBP01   ] PROFI_PLCF13_SLAVE9_DIAG_1 ALARM is acknowledged by WC4BP01::BATCH PLANT OPERATOR                  
14/09/2004 16:11:54.3 [SBP01   ] PROFI_PLCF13_SLAVE9_DIAG_1 ALARM is acknowledged by WC4BP01::BATCH PLANT OPERATOR                  
14/09/2004 16:11:54.9 [SBP01   ] FURNACE_HOPPER_ALARM_07 ALARM is acknowledged by WC4BP01::BATCH PLANT OPERATOR                     
14/09/2004 16:11:55.0 [SBP01   ] FURNACE_HOPPER_ALARM_07 ALARM is acknowledged by WC4BP01::BATCH PLANT OPERATOR                     
14/09/2004 16:11:55.5 [SBP01   ] FURNACE_HOPPER_ALARM_08 ALARM is acknowledged by WC4BP01::BATCH PLANT OPERATOR                     
14/09/2004 16:11:55.6 [SBP01   ] FURNACE_HOPPER_ALARM_08 ALARM is acknowledged by WC4BP01::BATCH PLANT OPERATOR                     
14/09/2004 16:11:59.9 [SBP01   ] Fix32.thisnode.name1.A_CV set to Areia 1 by SC4BP01::BATCH PLANT OPERATOR                          
14/09/2004 16:11:59.9 [SBP01   ] Fix32.thisnode.name2.A_CV set to Areia 2 by SC4BP01::BATCH PLANT OPERATOR                          
14/09/2004 16:11:59.9 [SBP01   ] Fix32.thisnode.name3.A_CV set to Dolomita by SC4BP01::BATCH PLANT OPERATOR                         
14/09/2004 16:12:00.0 [SBP01   ] Fix32.thisnode.name4.A_CV set to Calcario by SC4BP01::BATCH PLANT OPERATOR                         
14/09/2004 16:12:00.0 [SBP01   ] Fix32.thisnode.name5.A_CV set to Reserva by SC4BP01::BATCH PLANT OPERATOR                          
14/09/2004 16:12:00.0 [SBP01   ] Fix32.thisnode.name6.A_CV set to Barrilha by SC4BP01::BATCH PLANT OPERATOR                         
14/09/2004 16:12:00.0 [SBP01   ] Fix32.thisnode.name7.A_CV set to Feldspato by SC4BP01::BATCH PLANT OPERATOR                        
14/09/2004 16:12:00.0 [SBP01   ] Fix32.thisnode.name8.A_CV set to Sulfato by SC4BP01::BATCH PLANT OPERATOR                          
14/09/2004 16:12:00.0 [SBP01   ] Fix32.thisnode.name9.A_CV set to Po de EP by SC4BP01::BATCH PLANT OPERATOR                         
14/09/2004 16:12:00.0 [SBP01   ] Fix32.thisnode.name10.A_CV set to Grafite by SC4BP01::BATCH PLANT OPERATOR                         
14/09/2004 16:12:00.1 [SBP01   ] Fix32.thisnode.name11.A_CV set to Ferro by SC4BP01::BATCH PLANT OPERATOR                           
14/09/2004 16:12:00.1 [SBP01   ] Fix32.thisnode.name12.A_CV set to Nitrato by SC4BP01::BATCH PLANT OPERATOR                         
14/09/2004 16:12:00.1 [SBP01   ] Fix32.thisnode.name14.A_CV set to Selenio by SC4BP01::BATCH PLANT OPERATOR                         
14/09/2004 16:12:00.1 [SBP01   ] Fix32.thisnode.name15.A_CV set to Cobalto by SC4BP01::BATCH PLANT OPERATOR                         
14/09/2004 16:12:00.1 [SBP01   ] Fix32.thisnode.name16.A_CV set to Ferro by SC4BP01::BATCH PLANT OPERATOR                           
14/09/2004 16:12:00.2 [SBP01   ] Fix32.thisnode.name20.A_CV set to Caco by SC4BP01::BATCH PLANT OPERATOR                            
14/09/2004 16:12:00.2 [SBP01   ] Fix32.thisnode.name50.A_CV set to  gua by SC4BP01::BATCH PLANT OPERATOR                            
14/09/2004 16:12:00.2 [SBP01   ] Fix32.thisnode.name51.A_CV set to Vapor by SC4BP01::BATCH PLANT OPERATOR                           
14/09/2004 16:12:00.2 [SBP01   ] Fix32.thisnode.name201.A_CV set to Mst 1 seco by SC4BP01::BATCH PLANT OPERATOR                     
14/09/2004 16:12:00.2 [SBP01   ] Fix32.thisnode.name202.A_CV set to Mst 2 seco by SC4BP01::BATCH PLANT OPERATOR                     
14/09/2004 16:12:00.3 [SBP01   ] Fix32.thisnode.name203.A_CV set to Mst 1  mido by SC4BP01::BATCH PLANT OPERATOR                    
14/09/2004 16:12:00.3 [SBP01   ] Fix32.thisnode.name204.A_CV set to Mst 2  mido by SC4BP01::BATCH PLANT OPERATOR                    
14/09/2004 16:13:08.2 [SCE01   ] CE_M701_ANM_SAFETY_AREA ALARM is acknowledged by WC4CE04::COLD END OPERATOR                        
14/09/2004 16:13:08.3 [SCE01   ] CE_M701_ANM_SAFETY_AREA ALARM is acknowledged by WC4CE04::COLD END OPERATOR                        
14/09/2004 16:13:22.1 [SCE01   ] Fix32.SCE01.Z301_1_ANOMALY_RESET.F_CV set to 1 by WC4CE04::COLD END OPERATOR                       
14/09/2004 16:13:25.9 [SCE01   ] Fix32.SCE01.Z301_1_ANOMALY_RESET.F_CV set to 1 by WC4CE04::COLD END OPERATOR                       
14/09/2004 16:13:44.9 [SCE01   ] Fix32.SCE01.Z301_1_ANOMALY_RESET.F_CV set to 1 by WC4CE04::COLD END OPERATOR                       
14/09/2004 16:14:28.4 [SCE01   ] Fix32.SCE01.PAT15_RASP.F_CV set to 1 by WC4CE02::COLD END OPERATOR                                 
14/09/2004 16:14:58.7 [SCE01   ] CE_M701_ANM_SAFETY_AREA        OK               OPEN      CE M701 SAFETY AREA                     
14/09/2004 16:14:46.7 [SCE01   ] CE_M701_ANM_SAFETY_AREA        OK               OPEN      CE M701 SAFETY AREA                     
14/09/2004 16:15:59.9 [SBP01   ] Fix32.thisnode.name1.A_CV set to Areia 1 by SC4BP01::BATCH PLANT OPERATOR                          
14/09/2004 16:15:59.9 [SBP01   ] Fix32.thisnode.name2.A_CV set to Areia 2 by SC4BP01::BATCH PLANT OPERATOR                          
14/09/2004 16:15:59.9 [SBP01   ] Fix32.thisnode.name3.A_CV set to Dolomita by SC4BP01::BATCH PLANT OPERATOR                         
14/09/2004 16:16:00.0 [SBP01   ] Fix32.thisnode.name4.A_CV set to Calcario by SC4BP01::BATCH PLANT OPERATOR                         
14/09/2004 16:16:00.0 [SBP01   ] Fix32.thisnode.name5.A_CV set to Reserva by SC4BP01::BATCH PLANT OPERATOR                          
14/09/2004 16:16:00.0 [SBP01   ] Fix32.thisnode.name6.A_CV set to Barrilha by SC4BP01::BATCH PLANT OPERATOR                         
14/09/2004 16:16:00.0 [SBP01   ] Fix32.thisnode.name7.A_CV set to Feldspato by SC4BP01::BATCH PLANT OPERATOR                        
14/09/2004 16:16:00.0 [SBP01   ] Fix32.thisnode.name8.A_CV set to Sulfato by SC4BP01::BATCH PLANT OPERATOR                          
14/09/2004 16:16:00.0 [SBP01   ] Fix32.thisnode.name9.A_CV set to Po de EP by SC4BP01::BATCH PLANT OPERATOR                         
14/09/2004 16:16:00.0 [SBP01   ] Fix32.thisnode.name10.A_CV set to Grafite by SC4BP01::BATCH PLANT OPERATOR                         
14/09/2004 16:16:00.0 [SBP01   ] Fix32.thisnode.name11.A_CV set to Ferro by SC4BP01::BATCH PLANT OPERATOR                           
14/09/2004 16:16:00.1 [SBP01   ] Fix32.thisnode.name12.A_CV set to Nitrato by SC4BP01::BATCH PLANT OPERATOR                         
14/09/2004 16:16:00.1 [SBP01   ] Fix32.thisnode.name14.A_CV set to Selenio by SC4BP01::BATCH PLANT OPERATOR                         
14/09/2004 16:16:00.1 [SBP01   ] Fix32.thisnode.name15.A_CV set to Cobalto by SC4BP01::BATCH PLANT OPERATOR                         
14/09/2004 16:16:00.1 [SBP01   ] Fix32.thisnode.name16.A_CV set to Ferro by SC4BP01::BATCH PLANT OPERATOR                           
14/09/2004 16:16:00.1 [SBP01   ] Fix32.thisnode.name20.A_CV set to Caco by SC4BP01::BATCH PLANT OPERATOR                            
14/09/2004 16:16:00.2 [SBP01   ] Fix32.thisnode.name50.A_CV set to  gua by SC4BP01::BATCH PLANT OPERATOR                            
14/09/2004 16:16:00.2 [SBP01   ] Fix32.thisnode.name51.A_CV set to Vapor by SC4BP01::BATCH PLANT OPERATOR                           
14/09/2004 16:16:00.2 [SBP01   ] Fix32.thisnode.name201.A_CV set to Mst 1 seco by SC4BP01::BATCH PLANT OPERATOR                     
14/09/2004 16:16:00.2 [SBP01   ] Fix32.thisnode.name202.A_CV set to Mst 2 seco by SC4BP01::BATCH PLANT OPERATOR                     
14/09/2004 16:16:00.2 [SBP01   ] Fix32.thisnode.name203.A_CV set to Mst 1  mido by SC4BP01::BATCH PLANT OPERATOR                    
14/09/2004 16:16:00.2 [SBP01   ] Fix32.thisnode.name204.A_CV set to Mst 2  mido by SC4BP01::BATCH PLANT OPERATOR                    
14/09/2004 16:18:23.2 [SCE01   ] Fix32.SCE01.Z301_1_ANOMALY_RESET.F_CV set to 1 by WC4CE04::COLD END OPERATOR                       
14/09/2004 16:18:29.7 [SCE01   ] CE_M601_ANM_SAFETY_AREA        CFN             CLOSE      CE M601 SAFETY AREA                     
14/09/2004 16:18:42.7 [SCE01   ] CE_M601_ANM_SAFETY_AREA        CFN             CLOSE      CE M601 SAFETY AREA                     
14/09/2004 16:18:44.7 [SCE01   ] CE_M504_ANM_TIMEOUT_VACUUM     CFN             CLOSE      CE M504 TIME OUT VACUUM                 
14/09/2004 16:18:57.7 [SCE01   ] CE_M504_ANM_TIMEOUT_VACUUM     CFN             CLOSE      CE M504 TIME OUT VACUUM                 
14/09/2004 16:18:40.4 [SCE01   ] CE_M601_ANM_SAFETY_AREA ALARM is acknowledged by WC4CE04::COLD END OPERATOR                        
14/09/2004 16:18:40.5 [SCE01   ] CE_M601_ANM_SAFETY_AREA ALARM is acknowledged by WC4CE04::COLD END OPERATOR                        
14/09/2004 16:18:56.7 [SCE01   ] CE_M601_ANM_SAFETY_AREA        OK               OPEN      CE M601 SAFETY AREA                     
14/09/2004 16:19:09.7 [SCE01   ] CE_M601_ANM_SAFETY_AREA        OK               OPEN      CE M601 SAFETY AREA                     
14/09/2004 16:19:05.7 [SCE01   ] CE_M504_ANM_TIMEOUT_VACUUM     OK               OPEN      CE M504 TIME OUT VACUUM                 
14/09/2004 16:19:18.7 [SCE01   ] CE_M504_ANM_TIMEOUT_VACUUM     OK               OPEN      CE M504 TIME OUT VACUUM                 
14/09/2004 16:19:12.6 [SCE01   ] CE_M504_ANM_TIMEOUT_VACUUM ALARM is acknowledged by WC4CE04::COLD END OPERATOR                     
14/09/2004 16:19:12.7 [SCE01   ] CE_M504_ANM_TIMEOUT_VACUUM ALARM is acknowledged by WC4CE04::COLD END OPERATOR                     
14/09/2004 16:20:00.3 [SBP01   ] Fix32.thisnode.name1.A_CV set to Areia 1 by SC4BP01::BATCH PLANT OPERATOR                          
14/09/2004 16:20:00.3 [SBP01   ] Fix32.thisnode.name2.A_CV set to Areia 2 by SC4BP01::BATCH PLANT OPERATOR                          
14/09/2004 16:20:00.3 [SBP01   ] Fix32.thisnode.name3.A_CV set to Dolomita by SC4BP01::BATCH PLANT OPERATOR                         
14/09/2004 16:20:00.3 [SBP01   ] Fix32.thisnode.name4.A_CV set to Calcario by SC4BP01::BATCH PLANT OPERATOR                         
14/09/2004 16:20:00.3 [SBP01   ] Fix32.thisnode.name5.A_CV set to Reserva by SC4BP01::BATCH PLANT OPERATOR                          
14/09/2004 16:20:00.4 [SBP01   ] Fix32.thisnode.name6.A_CV set to Barrilha by SC4BP01::BATCH PLANT OPERATOR                         
14/09/2004 16:20:00.4 [SBP01   ] Fix32.thisnode.name7.A_CV set to Feldspato by SC4BP01::BATCH PLANT OPERATOR                        
14/09/2004 16:20:00.4 [SBP01   ] Fix32.thisnode.name8.A_CV set to Sulfato by SC4BP01::BATCH PLANT OPERATOR                          
14/09/2004 16:20:00.4 [SBP01   ] Fix32.thisnode.name9.A_CV set to Po de EP by SC4BP01::BATCH PLANT OPERATOR                         
14/09/2004 16:20:00.4 [SBP01   ] Fix32.thisnode.name10.A_CV set to Grafite by SC4BP01::BATCH PLANT OPERATOR                         
14/09/2004 16:20:00.5 [SBP01   ] Fix32.thisnode.name11.A_CV set to Ferro by SC4BP01::BATCH PLANT OPERATOR                           
14/09/2004 16:20:00.5 [SBP01   ] Fix32.thisnode.name12.A_CV set to Nitrato by SC4BP01::BATCH PLANT OPERATOR                         
14/09/2004 16:20:00.5 [SBP01   ] Fix32.thisnode.name14.A_CV set to Selenio by SC4BP01::BATCH PLANT OPERATOR                         
14/09/2004 16:20:00.5 [SBP01   ] Fix32.thisnode.name15.A_CV set to Cobalto by SC4BP01::BATCH PLANT OPERATOR                         
14/09/2004 16:20:00.6 [SBP01   ] Fix32.thisnode.name16.A_CV set to Ferro by SC4BP01::BATCH PLANT OPERATOR                           
14/09/2004 16:20:00.6 [SBP01   ] Fix32.thisnode.name20.A_CV set to Caco by SC4BP01::BATCH PLANT OPERATOR                            
14/09/2004 16:20:00.6 [SBP01   ] Fix32.thisnode.name50.A_CV set to  gua by SC4BP01::BATCH PLANT OPERATOR                            
14/09/2004 16:20:00.6 [SBP01   ] Fix32.thisnode.name51.A_CV set to Vapor by SC4BP01::BATCH PLANT OPERATOR                           
14/09/2004 16:20:00.7 [SBP01   ] Fix32.thisnode.name201.A_CV set to Mst 1 seco by SC4BP01::BATCH PLANT OPERATOR                     
14/09/2004 16:20:00.7 [SBP01   ] Fix32.thisnode.name202.A_CV set to Mst 2 seco by SC4BP01::BATCH PLANT OPERATOR                     
14/09/2004 16:20:00.7 [SBP01   ] Fix32.thisnode.name203.A_CV set to Mst 1  mido by SC4BP01::BATCH PLANT OPERATOR                    
14/09/2004 16:20:00.7 [SBP01   ] Fix32.thisnode.name204.A_CV set to Mst 2  mido by SC4BP01::BATCH PLANT OPERATOR                    
14/09/2004 16:21:08.5 [SHE10   ] RS_BA1006 ALARM is acknowledged by SC4HE10::HOT END OPERATOR                                       
14/09/2004 16:21:10.6 [SHE03   ] ETE_LOW_LEVEL4 ALARM is acknowledged by SC4HE10::HOT END OPERATOR                                  
14/09/2004 16:21:08.5 [SHE10   ] RS_BA1006 ALARM is acknowledged by SC4HE10::HOT END OPERATOR                                       
14/09/2004 16:21:10.7 [SHE03   ] ETE_LOW_LEVEL4 ALARM is acknowledged by SC4HE10::HOT END OPERATOR                                  
14/09/2004 16:22:10.5 [SHE03   ] ETE_FALH_NO_VALV ALARM is acknowledged by SC4HE10::HOT END OPERATOR                                
14/09/2004 16:22:10.6 [SHE03   ] ETE_FALH_NO_VALV ALARM is acknowledged by SC4HE10::HOT END OPERATOR                                
14/09/2004 16:22:12.2 [SHE03   ] ETE_HIGH_LEVEL ALARM is acknowledged by SC4HE10::HOT END OPERATOR                                  
14/09/2004 16:22:12.3 [SHE03   ] ETE_HIGH_LEVEL ALARM is acknowledged by SC4HE10::HOT END OPERATOR                                  
14/09/2004 16:22:31.4 [SCE01   ] Fix32.sce01.Pat03_A_Send.F_cv set to 1 by WC4CE01::COLD END OPERATOR                               
14/09/2004 16:22:36.7 [SCE01   ] Fix32.sce01.Pat04_A_Send.F_cv set to 1 by WC4CE01::COLD END OPERATOR                               
14/09/2004 16:23:09.5 [SBP01   ] FURNACE_HOPPER_ALARM_WORD ALARM is acknowledged by WC4BP01::BATCH PLANT OPERATOR                   
14/09/2004 16:23:09.7 [SBP01   ] FURNACE_HOPPER_ALARM_WORD ALARM is acknowledged by WC4BP01::BATCH PLANT OPERATOR                   
14/09/2004 16:23:13.7 [SBP01   ] FURNACE_HOPPER_ALARM_07 ALARM is acknowledged by WC4BP01::BATCH PLANT OPERATOR                     
14/09/2004 16:23:13.8 [SBP01   ] FURNACE_HOPPER_ALARM_07 ALARM is acknowledged by WC4BP01::BATCH PLANT OPERATOR                     
14/09/2004 16:23:15.5 [SBP01   ] FURNACE_HOPPER_ALARM_09 ALARM is acknowledged by WC4BP01::BATCH PLANT OPERATOR                     
14/09/2004 16:23:15.7 [SBP01   ] FURNACE_HOPPER_ALARM_09 ALARM is acknowledged by WC4BP01::BATCH PLANT OPERATOR                     
14/09/2004 16:23:37.1 [SCE01   ] Fix32.SCE01.PAT07_NREQ.F_CV set to 30 by WC4CE01::COLD END OPERATOR                                
14/09/2004 16:23:59.4 [SCE01   ] Fix32.SCE01.PAT06_PRIO_S.F_CV set to 0 by WC4CE01::COLD END OPERATOR                               
14/09/2004 16:23:59.9 [SBP01   ] Fix32.thisnode.name1.A_CV set to Areia 1 by SC4BP01::BATCH PLANT OPERATOR                          
14/09/2004 16:24:01.5 [SCE01   ] Fix32.SCE01.PAT05_PRIO_S.F_CV set to 0 by WC4CE01::COLD END OPERATOR                               
14/09/2004 16:23:59.9 [SBP01   ] Fix32.thisnode.name2.A_CV set to Areia 2 by SC4BP01::BATCH PLANT OPERATOR                          
14/09/2004 16:23:59.9 [SBP01   ] Fix32.thisnode.name3.A_CV set to Dolomita by SC4BP01::BATCH PLANT OPERATOR                         
14/09/2004 16:24:00.0 [SBP01   ] Fix32.thisnode.name4.A_CV set to Calcario by SC4BP01::BATCH PLANT OPERATOR                         
14/09/2004 16:24:00.0 [SBP01   ] Fix32.thisnode.name5.A_CV set to Reserva by SC4BP01::BATCH PLANT OPERATOR                          
14/09/2004 16:24:00.0 [SBP01   ] Fix32.thisnode.name6.A_CV set to Barrilha by SC4BP01::BATCH PLANT OPERATOR                         
14/09/2004 16:24:00.0 [SBP01   ] Fix32.thisnode.name7.A_CV set to Feldspato by SC4BP01::BATCH PLANT OPERATOR                        
14/09/2004 16:24:00.0 [SBP01   ] Fix32.thisnode.name8.A_CV set to Sulfato by SC4BP01::BATCH PLANT OPERATOR                          
14/09/2004 16:24:00.0 [SBP01   ] Fix32.thisnode.name9.A_CV set to Po de EP by SC4BP01::BATCH PLANT OPERATOR                         
14/09/2004 16:24:00.0 [SBP01   ] Fix32.thisnode.name10.A_CV set to Grafite by SC4BP01::BATCH PLANT OPERATOR                         
14/09/2004 16:24:00.0 [SBP01   ] Fix32.thisnode.name11.A_CV set to Ferro by SC4BP01::BATCH PLANT OPERATOR                           
14/09/2004 16:24:00.1 [SBP01   ] Fix32.thisnode.name12.A_CV set to Nitrato by SC4BP01::BATCH PLANT OPERATOR                         
14/09/2004 16:24:00.1 [SBP01   ] Fix32.thisnode.name14.A_CV set to Selenio by SC4BP01::BATCH PLANT OPERATOR                         
14/09/2004 16:24:00.1 [SBP01   ] Fix32.thisnode.name15.A_CV set to Cobalto by SC4BP01::BATCH PLANT OPERATOR                         
14/09/2004 16:24:00.1 [SBP01   ] Fix32.thisnode.name16.A_CV set to Ferro by SC4BP01::BATCH PLANT OPERATOR                           
14/09/2004 16:24:00.1 [SBP01   ] Fix32.thisnode.name20.A_CV set to Caco by SC4BP01::BATCH PLANT OPERATOR                            
14/09/2004 16:24:00.1 [SBP01   ] Fix32.thisnode.name50.A_CV set to  gua by SC4BP01::BATCH PLANT OPERATOR                            
14/09/2004 16:24:00.2 [SBP01   ] Fix32.thisnode.name51.A_CV set to Vapor by SC4BP01::BATCH PLANT OPERATOR                           
14/09/2004 16:24:00.2 [SBP01   ] Fix32.thisnode.name201.A_CV set to Mst 1 seco by SC4BP01::BATCH PLANT OPERATOR                     
14/09/2004 16:24:00.2 [SBP01   ] Fix32.thisnode.name202.A_CV set to Mst 2 seco by SC4BP01::BATCH PLANT OPERATOR                     
14/09/2004 16:24:00.2 [SBP01   ] Fix32.thisnode.name203.A_CV set to Mst 1  mido by SC4BP01::BATCH PLANT OPERATOR                    
14/09/2004 16:24:00.2 [SBP01   ] Fix32.thisnode.name204.A_CV set to Mst 2  mido by SC4BP01::BATCH PLANT OPERATOR                    
14/09/2004 16:24:19.5 [SCE01   ] Fix32.SCE01.PAT03_PRIO_S.F_CV set to 2 by WC4CE01::COLD END OPERATOR                               
14/09/2004 16:24:23.1 [SCE01   ] Fix32.SCE01.PAT04_PRIO_S.F_CV set to 4 by WC4CE01::COLD END OPERATOR                               
14/09/2004 16:24:17.1 [SCE01   ] Fix32.SCE01.Z301_1_ANOMALY_RESET.F_CV set to 1 by WC4CE04::COLD END OPERATOR                       
14/09/2004 16:24:27.8 [SCE01   ] Fix32.SCE01.PAT01_PRIO_S.F_CV set to 3 by WC4CE01::COLD END OPERATOR                               
14/09/2004 16:24:33.0 [SCE01   ] Fix32.SCE01.PAT02_PRIO_S.F_CV set to 5 by WC4CE01::COLD END OPERATOR                               
14/09/2004 16:25:01.7 [SCE01   ] Fix32.SCE01.PAT03_PRIO_S.F_CV set to 1 by WC4CE01::COLD END OPERATOR                               
14/09/2004 16:25:03.7 [SCE01   ] Fix32.SCE01.PAT04_PRIO_S.F_CV set to 3 by WC4CE01::COLD END OPERATOR                               
14/09/2004 16:25:06.1 [SCE01   ] Fix32.SCE01.PAT01_PRIO_S.F_CV set to 2 by WC4CE01::COLD END OPERATOR                               
14/09/2004 16:25:09.6 [SCE01   ] Fix32.SCE01.PAT02_PRIO_S.F_CV set to 4 by WC4CE01::COLD END OPERATOR                               
14/09/2004 16:25:49.0 [SCE01   ] Fix32.SCE01.Z301_1_M304_ENB_FORCE_DESC.F_CV set to 1 by WC4CE04::PRODUCTION ENGINEERS              
14/09/2004 16:26:03.2 [SCE01   ] Fix32.SCE01.Z301_1_M304_DSB_FORCE_DESC.F_CV set to 1 by WC4CE04::PRODUCTION ENGINEERS              
14/09/2004 16:27:59.9 [SBP01   ] Fix32.thisnode.name1.A_CV set to Areia 1 by SC4BP01::BATCH PLANT OPERATOR                          
14/09/2004 16:27:59.9 [SBP01   ] Fix32.thisnode.name2.A_CV set to Areia 2 by SC4BP01::BATCH PLANT OPERATOR                          
14/09/2004 16:27:59.9 [SBP01   ] Fix32.thisnode.name3.A_CV set to Dolomita by SC4BP01::BATCH PLANT OPERATOR                         
14/09/2004 16:27:59.9 [SBP01   ] Fix32.thisnode.name4.A_CV set to Calcario by SC4BP01::BATCH PLANT OPERATOR                         
14/09/2004 16:28:00.0 [SBP01   ] Fix32.thisnode.name5.A_CV set to Reserva by SC4BP01::BATCH PLANT OPERATOR                          
14/09/2004 16:28:00.0 [SBP01   ] Fix32.thisnode.name6.A_CV set to Barrilha by SC4BP01::BATCH PLANT OPERATOR                         
14/09/2004 16:28:00.0 [SBP01   ] Fix32.thisnode.name7.A_CV set to Feldspato by SC4BP01::BATCH PLANT OPERATOR                        
14/09/2004 16:28:00.0 [SBP01   ] Fix32.thisnode.name8.A_CV set to Sulfato by SC4BP01::BATCH PLANT OPERATOR                          
14/09/2004 16:28:00.0 [SBP01   ] Fix32.thisnode.name9.A_CV set to Po de EP by SC4BP01::BATCH PLANT OPERATOR                         
14/09/2004 16:28:00.0 [SBP01   ] Fix32.thisnode.name10.A_CV set to Grafite by SC4BP01::BATCH PLANT OPERATOR                         
14/09/2004 16:28:00.0 [SBP01   ] Fix32.thisnode.name11.A_CV set to Ferro by SC4BP01::BATCH PLANT OPERATOR                           
14/09/2004 16:28:00.0 [SBP01   ] Fix32.thisnode.name12.A_CV set to Nitrato by SC4BP01::BATCH PLANT OPERATOR                         
14/09/2004 16:28:00.1 [SBP01   ] Fix32.thisnode.name14.A_CV set to Selenio by SC4BP01::BATCH PLANT OPERATOR                         
14/09/2004 16:28:00.1 [SBP01   ] Fix32.thisnode.name15.A_CV set to Cobalto by SC4BP01::BATCH PLANT OPERATOR                         
14/09/2004 16:28:00.1 [SBP01   ] Fix32.thisnode.name16.A_CV set to Ferro by SC4BP01::BATCH PLANT OPERATOR                           
14/09/2004 16:28:00.1 [SBP01   ] Fix32.thisnode.name20.A_CV set to Caco by SC4BP01::BATCH PLANT OPERATOR                            
14/09/2004 16:28:00.1 [SBP01   ] Fix32.thisnode.name50.A_CV set to  gua by SC4BP01::BATCH PLANT OPERATOR                            
14/09/2004 16:28:00.1 [SBP01   ] Fix32.thisnode.name51.A_CV set to Vapor by SC4BP01::BATCH PLANT OPERATOR                           
14/09/2004 16:28:00.2 [SBP01   ] Fix32.thisnode.name201.A_CV set to Mst 1 seco by SC4BP01::BATCH PLANT OPERATOR                     
14/09/2004 16:28:00.2 [SBP01   ] Fix32.thisnode.name202.A_CV set to Mst 2 seco by SC4BP01::BATCH PLANT OPERATOR                     
14/09/2004 16:28:00.2 [SBP01   ] Fix32.thisnode.name203.A_CV set to Mst 1  mido by SC4BP01::BATCH PLANT OPERATOR                    
14/09/2004 16:28:00.2 [SBP01   ] Fix32.thisnode.name204.A_CV set to Mst 2  mido by SC4BP01::BATCH PLANT OPERATOR                    
14/09/2004 16:29:27.5 [SCE01   ] Fix32.SCE01.PAT15_FECR_L.F_CV set to 1 by WC4CE01::COLD END OPERATOR                               
14/09/2004 16:29:28.0 [SCE01   ] Fix32.SCE01.PAT15_FECR_R.F_CV set to 1 by WC4CE01::COLD END OPERATOR                               
14/09/2004 16:29:37.4 [SCE01   ] Fix32.SCE01.PAT15_LENGTH.F_CV set to 2201 by WC4CE01::COLD END OPERATOR                            
14/09/2004 16:30:56.7 [SCE01   ] Fix32.SCE01.PAT15_LENGTH.F_CV set to 1901 by WC4CE01::COLD END OPERATOR                            
14/09/2004 16:30:59.9 [SCE01   ] Fix32.SCE01.PAT15_RASP.F_CV set to 1 by WC4CE01::COLD END OPERATOR                                 
14/09/2004 16:31:59.9 [SBP01   ] Fix32.thisnode.name1.A_CV set to Areia 1 by SC4BP01::BATCH PLANT OPERATOR                          
14/09/2004 16:31:59.9 [SBP01   ] Fix32.thisnode.name2.A_CV set to Areia 2 by SC4BP01::BATCH PLANT OPERATOR                          
14/09/2004 16:31:59.9 [SBP01   ] Fix32.thisnode.name3.A_CV set to Dolomita by SC4BP01::BATCH PLANT OPERATOR                         
14/09/2004 16:31:59.9 [SBP01   ] Fix32.thisnode.name4.A_CV set to Calcario by SC4BP01::BATCH PLANT OPERATOR                         
14/09/2004 16:31:59.9 [SBP01   ] Fix32.thisnode.name5.A_CV set to Reserva by SC4BP01::BATCH PLANT OPERATOR                          
14/09/2004 16:32:00.0 [SBP01   ] Fix32.thisnode.name6.A_CV set to Barrilha by SC4BP01::BATCH PLANT OPERATOR                         
14/09/2004 16:32:00.0 [SBP01   ] Fix32.thisnode.name7.A_CV set to Feldspato by SC4BP01::BATCH PLANT OPERATOR                        
14/09/2004 16:32:00.0 [SBP01   ] Fix32.thisnode.name8.A_CV set to Sulfato by SC4BP01::BATCH PLANT OPERATOR                          
14/09/2004 16:32:00.0 [SBP01   ] Fix32.thisnode.name9.A_CV set to Po de EP by SC4BP01::BATCH PLANT OPERATOR                         
14/09/2004 16:32:00.0 [SBP01   ] Fix32.thisnode.name10.A_CV set to Grafite by SC4BP01::BATCH PLANT OPERATOR                         
14/09/2004 16:32:00.0 [SBP01   ] Fix32.thisnode.name11.A_CV set to Ferro by SC4BP01::BATCH PLANT OPERATOR                           
14/09/2004 16:32:00.0 [SBP01   ] Fix32.thisnode.name12.A_CV set to Nitrato by SC4BP01::BATCH PLANT OPERATOR                         
14/09/2004 16:32:00.1 [SBP01   ] Fix32.thisnode.name14.A_CV set to Selenio by SC4BP01::BATCH PLANT OPERATOR                         
14/09/2004 16:32:00.1 [SBP01   ] Fix32.thisnode.name15.A_CV set to Cobalto by SC4BP01::BATCH PLANT OPERATOR                         
14/09/2004 16:32:00.1 [SBP01   ] Fix32.thisnode.name16.A_CV set to Ferro by SC4BP01::BATCH PLANT OPERATOR                           
14/09/2004 16:32:00.1 [SBP01   ] Fix32.thisnode.name20.A_CV set to Caco by SC4BP01::BATCH PLANT OPERATOR                            
14/09/2004 16:32:00.2 [SBP01   ] Fix32.thisnode.name50.A_CV set to  gua by SC4BP01::BATCH PLANT OPERATOR                            
14/09/2004 16:32:00.2 [SBP01   ] Fix32.thisnode.name51.A_CV set to Vapor by SC4BP01::BATCH PLANT OPERATOR                           
14/09/2004 16:32:00.2 [SBP01   ] Fix32.thisnode.name201.A_CV set to Mst 1 seco by SC4BP01::BATCH PLANT OPERATOR                     
14/09/2004 16:32:00.2 [SBP01   ] Fix32.thisnode.name202.A_CV set to Mst 2 seco by SC4BP01::BATCH PLANT OPERATOR                     
14/09/2004 16:32:00.3 [SBP01   ] Fix32.thisnode.name203.A_CV set to Mst 1  mido by SC4BP01::BATCH PLANT OPERATOR                    
14/09/2004 16:32:00.3 [SBP01   ] Fix32.thisnode.name204.A_CV set to Mst 2  mido by SC4BP01::BATCH PLANT OPERATOR                    
14/09/2004 16:32:44.2 [SHE03   ] ETE_FALH_NO_VALV ALARM is acknowledged by SC4HE10::HOT END OPERATOR                                
14/09/2004 16:32:44.2 [SHE03   ] ETE_FALH_NO_VALV ALARM is acknowledged by SC4HE10::HOT END OPERATOR                                
14/09/2004 16:32:45.3 [SHE03   ] ETE_LOW_LEVEL ALARM is acknowledged by SC4HE10::HOT END OPERATOR                                   
14/09/2004 16:32:45.3 [SHE03   ] ETE_LOW_LEVEL ALARM is acknowledged by SC4HE10::HOT END OPERATOR                                   
14/09/2004 16:34:34.3 SC4CE07 SECURITY VIOLATION: HOT END OPERATOR access to SECURITY AREA E                                        
14/09/2004 16:35:06.3 [SCE01   ] Fix32.SCE01.PAT03_LIN_ENAB.F_CV set to 1 by WC4CE01::COLD END OPERATOR                             
14/09/2004 16:35:11.1 [SCE01   ] Fix32.SCE01.PAT08_LIN_ENAB.F_CV set to 0 by WC4CE01::COLD END OPERATOR                             
14/09/2004 16:35:12.8 [SCE01   ] Fix32.SCE01.PAT04_LIN_ENAB.F_CV set to 1 by WC4CE01::COLD END OPERATOR                             
14/09/2004 16:35:59.9 [SBP01   ] Fix32.thisnode.name1.A_CV set to Areia 1 by SC4BP01::BATCH PLANT OPERATOR                          
14/09/2004 16:35:59.9 [SBP01   ] Fix32.thisnode.name2.A_CV set to Areia 2 by SC4BP01::BATCH PLANT OPERATOR                          
14/09/2004 16:35:59.9 [SBP01   ] Fix32.thisnode.name3.A_CV set to Dolomita by SC4BP01::BATCH PLANT OPERATOR                         
14/09/2004 16:35:59.9 [SBP01   ] Fix32.thisnode.name4.A_CV set to Calcario by SC4BP01::BATCH PLANT OPERATOR                         
14/09/2004 16:36:00.0 [SBP01   ] Fix32.thisnode.name5.A_CV set to Reserva by SC4BP01::BATCH PLANT OPERATOR                          
14/09/2004 16:36:00.0 [SBP01   ] Fix32.thisnode.name6.A_CV set to Barrilha by SC4BP01::BATCH PLANT OPERATOR                         
14/09/2004 16:36:00.0 [SBP01   ] Fix32.thisnode.name7.A_CV set to Feldspato by SC4BP01::BATCH PLANT OPERATOR                        
14/09/2004 16:36:00.0 [SBP01   ] Fix32.thisnode.name8.A_CV set to Sulfato by SC4BP01::BATCH PLANT OPERATOR                          
14/09/2004 16:36:00.0 [SBP01   ] Fix32.thisnode.name9.A_CV set to Po de EP by SC4BP01::BATCH PLANT OPERATOR                         
14/09/2004 16:36:00.0 [SBP01   ] Fix32.thisnode.name10.A_CV set to Grafite by SC4BP01::BATCH PLANT OPERATOR                         
14/09/2004 16:36:00.0 [SBP01   ] Fix32.thisnode.name11.A_CV set to Ferro by SC4BP01::BATCH PLANT OPERATOR                           
14/09/2004 16:36:00.1 [SBP01   ] Fix32.thisnode.name12.A_CV set to Nitrato by SC4BP01::BATCH PLANT OPERATOR                         
14/09/2004 16:36:00.1 [SBP01   ] Fix32.thisnode.name14.A_CV set to Selenio by SC4BP01::BATCH PLANT OPERATOR                         
14/09/2004 16:36:00.1 [SBP01   ] Fix32.thisnode.name15.A_CV set to Cobalto by SC4BP01::BATCH PLANT OPERATOR                         
14/09/2004 16:36:00.1 [SBP01   ] Fix32.thisnode.name16.A_CV set to Ferro by SC4BP01::BATCH PLANT OPERATOR                           
14/09/2004 16:36:00.1 [SBP01   ] Fix32.thisnode.name20.A_CV set to Caco by SC4BP01::BATCH PLANT OPERATOR                            
14/09/2004 16:36:00.2 [SBP01   ] Fix32.thisnode.name50.A_CV set to  gua by SC4BP01::BATCH PLANT OPERATOR                            
14/09/2004 16:36:00.2 [SBP01   ] Fix32.thisnode.name51.A_CV set to Vapor by SC4BP01::BATCH PLANT OPERATOR                           
14/09/2004 16:36:00.2 [SBP01   ] Fix32.thisnode.name201.A_CV set to Mst 1 seco by SC4BP01::BATCH PLANT OPERATOR                     
14/09/2004 16:36:00.2 [SBP01   ] Fix32.thisnode.name202.A_CV set to Mst 2 seco by SC4BP01::BATCH PLANT OPERATOR                     
14/09/2004 16:36:00.2 [SBP01   ] Fix32.thisnode.name203.A_CV set to Mst 1  mido by SC4BP01::BATCH PLANT OPERATOR                    
14/09/2004 16:36:00.2 [SBP01   ] Fix32.thisnode.name204.A_CV set to Mst 2  mido by SC4BP01::BATCH PLANT OPERATOR                    
14/09/2004 16:40:00.3 [SBP01   ] Fix32.thisnode.name1.A_CV set to Areia 1 by SC4BP01::BATCH PLANT OPERATOR                          
14/09/2004 16:40:00.3 [SBP01   ] Fix32.thisnode.name2.A_CV set to Areia 2 by SC4BP01::BATCH PLANT OPERATOR                          
14/09/2004 16:40:00.3 [SBP01   ] Fix32.thisnode.name3.A_CV set to Dolomita by SC4BP01::BATCH PLANT OPERATOR                         
14/09/2004 16:40:00.3 [SBP01   ] Fix32.thisnode.name4.A_CV set to Calcario by SC4BP01::BATCH PLANT OPERATOR                         
14/09/2004 16:40:00.4 [SBP01   ] Fix32.thisnode.name5.A_CV set to Reserva by SC4BP01::BATCH PLANT OPERATOR                          
14/09/2004 16:40:00.4 [SBP01   ] Fix32.thisnode.name6.A_CV set to Barrilha by SC4BP01::BATCH PLANT OPERATOR                         
14/09/2004 16:40:00.4 [SBP01   ] Fix32.thisnode.name7.A_CV set to Feldspato by SC4BP01::BATCH PLANT OPERATOR                        
14/09/2004 16:40:00.4 [SBP01   ] Fix32.thisnode.name8.A_CV set to Sulfato by SC4BP01::BATCH PLANT OPERATOR                          
14/09/2004 16:40:00.4 [SBP01   ] Fix32.thisnode.name9.A_CV set to Po de EP by SC4BP01::BATCH PLANT OPERATOR                         
14/09/2004 16:40:00.4 [SBP01   ] Fix32.thisnode.name10.A_CV set to Grafite by SC4BP01::BATCH PLANT OPERATOR                         
14/09/2004 16:40:00.5 [SBP01   ] Fix32.thisnode.name11.A_CV set to Ferro by SC4BP01::BATCH PLANT OPERATOR                           
14/09/2004 16:40:00.5 [SBP01   ] Fix32.thisnode.name12.A_CV set to Nitrato by SC4BP01::BATCH PLANT OPERATOR                         
14/09/2004 16:40:00.5 [SBP01   ] Fix32.thisnode.name14.A_CV set to Selenio by SC4BP01::BATCH PLANT OPERATOR                         
14/09/2004 16:40:00.5 [SBP01   ] Fix32.thisnode.name15.A_CV set to Cobalto by SC4BP01::BATCH PLANT OPERATOR                         
14/09/2004 16:40:00.6 [SBP01   ] Fix32.thisnode.name16.A_CV set to Ferro by SC4BP01::BATCH PLANT OPERATOR                           
14/09/2004 16:40:00.6 [SBP01   ] Fix32.thisnode.name20.A_CV set to Caco by SC4BP01::BATCH PLANT OPERATOR                            
14/09/2004 16:40:00.6 [SBP01   ] Fix32.thisnode.name50.A_CV set to  gua by SC4BP01::BATCH PLANT OPERATOR                            
14/09/2004 16:40:00.7 [SBP01   ] Fix32.thisnode.name51.A_CV set to Vapor by SC4BP01::BATCH PLANT OPERATOR                           
14/09/2004 16:40:00.7 [SBP01   ] Fix32.thisnode.name201.A_CV set to Mst 1 seco by SC4BP01::BATCH PLANT OPERATOR                     
14/09/2004 16:40:00.7 [SBP01   ] Fix32.thisnode.name202.A_CV set to Mst 2 seco by SC4BP01::BATCH PLANT OPERATOR                     
14/09/2004 16:40:00.8 [SBP01   ] Fix32.thisnode.name203.A_CV set to Mst 1  mido by SC4BP01::BATCH PLANT OPERATOR                    
14/09/2004 16:40:00.8 [SBP01   ] Fix32.thisnode.name204.A_CV set to Mst 2  mido by SC4BP01::BATCH PLANT OPERATOR                    
14/09/2004 16:41:01.6 [SCE01   ] Fix32.SCE01.bar1_MODE.F_CV set to 1 by WC4CE04::COLD END OPERATOR                                  
14/09/2004 16:41:07.9 [SCE01   ] Fix32.SCE01.bar3_MODE.F_CV set to 1 by WC4CE04::COLD END OPERATOR                                  
14/09/2004 16:42:54.6 [SCE01   ] Fix32.SCE01.Z600_M604_TYPE_OF_PRODUCTION.F_CV set to 4 by WC4CE01::COLD END OPERATOR               
14/09/2004 16:43:07.7 [SCE01   ] Fix32.sce01.Pat03_A_Send.F_cv set to 1 by WC4CE01::COLD END OPERATOR                               
14/09/2004 16:43:11.6 [SCE01   ] Fix32.sce01.Pat04_A_Send.F_cv set to 1 by WC4CE01::COLD END OPERATOR                               
14/09/2004 16:43:21.7 [SCE01   ] CE_M601_ANM_SAFETY_AREA        CFN             CLOSE      CE M601 SAFETY AREA                     
14/09/2004 16:43:29.9 [SCE01   ] CE_M601_ANM_SAFETY_AREA        CFN             CLOSE      CE M601 SAFETY AREA                     
14/09/2004 16:43:59.9 [SBP01   ] Fix32.thisnode.name1.A_CV set to Areia 1 by SC4BP01::BATCH PLANT OPERATOR                          
14/09/2004 16:43:59.9 [SBP01   ] Fix32.thisnode.name2.A_CV set to Areia 2 by SC4BP01::BATCH PLANT OPERATOR                          
14/09/2004 16:43:59.9 [SBP01   ] Fix32.thisnode.name3.A_CV set to Dolomita by SC4BP01::BATCH PLANT OPERATOR                         
14/09/2004 16:43:59.9 [SBP01   ] Fix32.thisnode.name4.A_CV set to Calcario by SC4BP01::BATCH PLANT OPERATOR                         
14/09/2004 16:44:00.0 [SBP01   ] Fix32.thisnode.name5.A_CV set to Reserva by SC4BP01::BATCH PLANT OPERATOR                          
14/09/2004 16:44:00.0 [SBP01   ] Fix32.thisnode.name6.A_CV set to Barrilha by SC4BP01::BATCH PLANT OPERATOR                         
14/09/2004 16:44:00.0 [SBP01   ] Fix32.thisnode.name7.A_CV set to Feldspato by SC4BP01::BATCH PLANT OPERATOR                        
14/09/2004 16:44:00.0 [SBP01   ] Fix32.thisnode.name8.A_CV set to Sulfato by SC4BP01::BATCH PLANT OPERATOR                          
14/09/2004 16:44:00.0 [SBP01   ] Fix32.thisnode.name9.A_CV set to Po de EP by SC4BP01::BATCH PLANT OPERATOR                         
14/09/2004 16:44:00.1 [SBP01   ] Fix32.thisnode.name10.A_CV set to Grafite by SC4BP01::BATCH PLANT OPERATOR                         
14/09/2004 16:44:00.1 [SBP01   ] Fix32.thisnode.name11.A_CV set to Ferro by SC4BP01::BATCH PLANT OPERATOR                           
14/09/2004 16:44:00.1 [SBP01   ] Fix32.thisnode.name12.A_CV set to Nitrato by SC4BP01::BATCH PLANT OPERATOR                         
14/09/2004 16:44:00.1 [SBP01   ] Fix32.thisnode.name14.A_CV set to Selenio by SC4BP01::BATCH PLANT OPERATOR                         
14/09/2004 16:44:00.2 [SBP01   ] Fix32.thisnode.name15.A_CV set to Cobalto by SC4BP01::BATCH PLANT OPERATOR                         
14/09/2004 16:44:00.2 [SBP01   ] Fix32.thisnode.name16.A_CV set to Ferro by SC4BP01::BATCH PLANT OPERATOR                           
14/09/2004 16:44:00.2 [SBP01   ] Fix32.thisnode.name20.A_CV set to Caco by SC4BP01::BATCH PLANT OPERATOR                            
14/09/2004 16:44:00.2 [SBP01   ] Fix32.thisnode.name50.A_CV set to  gua by SC4BP01::BATCH PLANT OPERATOR                            
14/09/2004 16:44:00.3 [SBP01   ] Fix32.thisnode.name51.A_CV set to Vapor by SC4BP01::BATCH PLANT OPERATOR                           
14/09/2004 16:44:00.3 [SBP01   ] Fix32.thisnode.name201.A_CV set to Mst 1 seco by SC4BP01::BATCH PLANT OPERATOR                     
14/09/2004 16:44:00.3 [SBP01   ] Fix32.thisnode.name202.A_CV set to Mst 2 seco by SC4BP01::BATCH PLANT OPERATOR                     
14/09/2004 16:44:00.3 [SBP01   ] Fix32.thisnode.name203.A_CV set to Mst 1  mido by SC4BP01::BATCH PLANT OPERATOR                    
14/09/2004 16:44:00.3 [SBP01   ] Fix32.thisnode.name204.A_CV set to Mst 2  mido by SC4BP01::BATCH PLANT OPERATOR                    
14/09/2004 16:48:00.0 [SBP01   ] Fix32.thisnode.name1.A_CV set to Areia 1 by SC4BP01::BATCH PLANT OPERATOR                          
14/09/2004 16:48:00.0 [SBP01   ] Fix32.thisnode.name2.A_CV set to Areia 2 by SC4BP01::BATCH PLANT OPERATOR                          
14/09/2004 16:48:00.0 [SBP01   ] Fix32.thisnode.name3.A_CV set to Dolomita by SC4BP01::BATCH PLANT OPERATOR                         
14/09/2004 16:48:00.1 [SBP01   ] Fix32.thisnode.name4.A_CV set to Calcario by SC4BP01::BATCH PLANT OPERATOR                         
14/09/2004 16:48:00.1 [SBP01   ] Fix32.thisnode.name5.A_CV set to Reserva by SC4BP01::BATCH PLANT OPERATOR                          
14/09/2004 16:48:00.1 [SBP01   ] Fix32.thisnode.name6.A_CV set to Barrilha by SC4BP01::BATCH PLANT OPERATOR                         
14/09/2004 16:48:00.1 [SBP01   ] Fix32.thisnode.name7.A_CV set to Feldspato by SC4BP01::BATCH PLANT OPERATOR                        
14/09/2004 16:48:00.1 [SBP01   ] Fix32.thisnode.name8.A_CV set to Sulfato by SC4BP01::BATCH PLANT OPERATOR                          
14/09/2004 16:48:00.2 [SBP01   ] Fix32.thisnode.name9.A_CV set to Po de EP by SC4BP01::BATCH PLANT OPERATOR                         
14/09/2004 16:48:00.2 [SBP01   ] Fix32.thisnode.name10.A_CV set to Grafite by SC4BP01::BATCH PLANT OPERATOR                         
14/09/2004 16:48:00.2 [SBP01   ] Fix32.thisnode.name11.A_CV set to Ferro by SC4BP01::BATCH PLANT OPERATOR                           
14/09/2004 16:48:00.2 [SBP01   ] Fix32.thisnode.name12.A_CV set to Nitrato by SC4BP01::BATCH PLANT OPERATOR                         
14/09/2004 16:48:00.2 [SBP01   ] Fix32.thisnode.name14.A_CV set to Selenio by SC4BP01::BATCH PLANT OPERATOR                         
14/09/2004 16:48:00.2 [SBP01   ] Fix32.thisnode.name15.A_CV set to Cobalto by SC4BP01::BATCH PLANT OPERATOR                         
14/09/2004 16:48:00.3 [SBP01   ] Fix32.thisnode.name16.A_CV set to Ferro by SC4BP01::BATCH PLANT OPERATOR                           
14/09/2004 16:48:00.3 [SBP01   ] Fix32.thisnode.name20.A_CV set to Caco by SC4BP01::BATCH PLANT OPERATOR                            
14/09/2004 16:48:00.3 [SBP01   ] Fix32.thisnode.name50.A_CV set to  gua by SC4BP01::BATCH PLANT OPERATOR                            
14/09/2004 16:48:00.3 [SBP01   ] Fix32.thisnode.name51.A_CV set to Vapor by SC4BP01::BATCH PLANT OPERATOR                           
14/09/2004 16:48:00.3 [SBP01   ] Fix32.thisnode.name201.A_CV set to Mst 1 seco by SC4BP01::BATCH PLANT OPERATOR                     
14/09/2004 16:48:00.3 [SBP01   ] Fix32.thisnode.name202.A_CV set to Mst 2 seco by SC4BP01::BATCH PLANT OPERATOR                     
14/09/2004 16:48:00.4 [SBP01   ] Fix32.thisnode.name203.A_CV set to Mst 1  mido by SC4BP01::BATCH PLANT OPERATOR                    
14/09/2004 16:48:00.4 [SBP01   ] Fix32.thisnode.name204.A_CV set to Mst 2  mido by SC4BP01::BATCH PLANT OPERATOR                    
14/09/2004 16:48:33.7 [SCE01   ] CE_M601_ANM_SAFETY_AREA        OK               OPEN      CE M601 SAFETY AREA                     
14/09/2004 16:48:41.9 [SCE01   ] CE_M601_ANM_SAFETY_AREA        OK               OPEN      CE M601 SAFETY AREA                     
14/09/2004 16:49:38.7 [SCE01   ] CE_M704_ANM_SAFETY_AREA        CFN             CLOSE      CE M704 SAFETY AREA                     
14/09/2004 16:49:46.9 [SCE01   ] CE_M704_ANM_SAFETY_AREA        CFN             CLOSE      CE M704 SAFETY AREA                     
14/09/2004 16:50:44.1 [SCE01   ] CE_M704_ANM_SAFETY_AREA ALARM is acknowledged by WC4CE04::COLD END OPERATOR                        
14/09/2004 16:50:44.2 [SCE01   ] CE_M704_ANM_SAFETY_AREA ALARM is acknowledged by WC4CE04::COLD END OPERATOR                        
14/09/2004 16:50:45.2 [SCE01   ] CE_M601_ANM_SAFETY_AREA ALARM is acknowledged by WC4CE04::COLD END OPERATOR                        
14/09/2004 16:50:45.3 [SCE01   ] CE_M601_ANM_SAFETY_AREA ALARM is acknowledged by WC4CE04::COLD END OPERATOR                        
14/09/2004 16:51:47.9 [SCE01   ] CE_M704_ANM_SAFETY_AREA        OK               OPEN      CE M704 SAFETY AREA                     
14/09/2004 16:51:40.7 [SCE01   ] CE_M704_ANM_SAFETY_AREA        OK               OPEN      CE M704 SAFETY AREA                     
14/09/2004 16:51:59.9 [SBP01   ] Fix32.thisnode.name1.A_CV set to Areia 1 by SC4BP01::BATCH PLANT OPERATOR                          
14/09/2004 16:51:59.9 [SBP01   ] Fix32.thisnode.name2.A_CV set to Areia 2 by SC4BP01::BATCH PLANT OPERATOR                          
14/09/2004 16:52:00.0 [SBP01   ] Fix32.thisnode.name3.A_CV set to Dolomita by SC4BP01::BATCH PLANT OPERATOR                         
14/09/2004 16:52:00.0 [SBP01   ] Fix32.thisnode.name4.A_CV set to Calcario by SC4BP01::BATCH PLANT OPERATOR                         
14/09/2004 16:52:00.0 [SBP01   ] Fix32.thisnode.name5.A_CV set to Reserva by SC4BP01::BATCH PLANT OPERATOR                          
14/09/2004 16:52:00.0 [SBP01   ] Fix32.thisnode.name6.A_CV set to Barrilha by SC4BP01::BATCH PLANT OPERATOR                         
14/09/2004 16:52:00.1 [SBP01   ] Fix32.thisnode.name7.A_CV set to Feldspato by SC4BP01::BATCH PLANT OPERATOR                        
14/09/2004 16:52:00.1 [SBP01   ] Fix32.thisnode.name8.A_CV set to Sulfato by SC4BP01::BATCH PLANT OPERATOR                          
14/09/2004 16:52:00.1 [SBP01   ] Fix32.thisnode.name9.A_CV set to Po de EP by SC4BP01::BATCH PLANT OPERATOR                         
14/09/2004 16:52:00.1 [SBP01   ] Fix32.thisnode.name10.A_CV set to Grafite by SC4BP01::BATCH PLANT OPERATOR                         
14/09/2004 16:52:00.2 [SBP01   ] Fix32.thisnode.name11.A_CV set to Ferro by SC4BP01::BATCH PLANT OPERATOR                           
14/09/2004 16:52:00.2 [SBP01   ] Fix32.thisnode.name12.A_CV set to Nitrato by SC4BP01::BATCH PLANT OPERATOR                         
14/09/2004 16:52:00.2 [SBP01   ] Fix32.thisnode.name14.A_CV set to Selenio by SC4BP01::BATCH PLANT OPERATOR                         
14/09/2004 16:52:00.3 [SBP01   ] Fix32.thisnode.name15.A_CV set to Cobalto by SC4BP01::BATCH PLANT OPERATOR                         
14/09/2004 16:52:00.3 [SBP01   ] Fix32.thisnode.name16.A_CV set to Ferro by SC4BP01::BATCH PLANT OPERATOR                           
14/09/2004 16:52:00.3 [SBP01   ] Fix32.thisnode.name20.A_CV set to Caco by SC4BP01::BATCH PLANT OPERATOR                            
14/09/2004 16:52:00.3 [SBP01   ] Fix32.thisnode.name50.A_CV set to  gua by SC4BP01::BATCH PLANT OPERATOR                            
14/09/2004 16:52:00.3 [SBP01   ] Fix32.thisnode.name51.A_CV set to Vapor by SC4BP01::BATCH PLANT OPERATOR                           
14/09/2004 16:52:00.3 [SBP01   ] Fix32.thisnode.name201.A_CV set to Mst 1 seco by SC4BP01::BATCH PLANT OPERATOR                     
14/09/2004 16:52:00.3 [SBP01   ] Fix32.thisnode.name202.A_CV set to Mst 2 seco by SC4BP01::BATCH PLANT OPERATOR                     
14/09/2004 16:52:00.3 [SBP01   ] Fix32.thisnode.name203.A_CV set to Mst 1  mido by SC4BP01::BATCH PLANT OPERATOR                    
14/09/2004 16:52:00.4 [SBP01   ] Fix32.thisnode.name204.A_CV set to Mst 2  mido by SC4BP01::BATCH PLANT OPERATOR                    
14/09/2004 16:55:56.7 [SBP01   ] S1_INTAKE_ALLOWED_FROM_RH1                         1      S1_intake_allowed_from_rh1              
14/09/2004 16:55:56.7 [SBP01   ] Fix32.SBP01.s1_intake_allowed_from_rh1.f_CV set to 1 by SC4BP01::BATCH PLANT OPERATOR              
14/09/2004 16:55:59.9 [SBP01   ] Fix32.thisnode.name1.A_CV set to Areia 1 by SC4BP01::BATCH PLANT OPERATOR                          
14/09/2004 16:55:59.9 [SBP01   ] Fix32.thisnode.name2.A_CV set to Areia 2 by SC4BP01::BATCH PLANT OPERATOR                          
14/09/2004 16:56:00.0 [SBP01   ] Fix32.thisnode.name3.A_CV set to Dolomita by SC4BP01::BATCH PLANT OPERATOR                         
14/09/2004 16:56:00.0 [SBP01   ] Fix32.thisnode.name4.A_CV set to Calcario by SC4BP01::BATCH PLANT OPERATOR                         
14/09/2004 16:56:00.0 [SBP01   ] Fix32.thisnode.name5.A_CV set to Reserva by SC4BP01::BATCH PLANT OPERATOR                          
14/09/2004 16:56:00.0 [SBP01   ] Fix32.thisnode.name6.A_CV set to Barrilha by SC4BP01::BATCH PLANT OPERATOR                         
14/09/2004 16:56:00.0 [SBP01   ] Fix32.thisnode.name7.A_CV set to Feldspato by SC4BP01::BATCH PLANT OPERATOR                        
14/09/2004 16:56:00.0 [SBP01   ] Fix32.thisnode.name8.A_CV set to Sulfato by SC4BP01::BATCH PLANT OPERATOR                          
14/09/2004 16:56:00.0 [SBP01   ] Fix32.thisnode.name9.A_CV set to Po de EP by SC4BP01::BATCH PLANT OPERATOR                         
14/09/2004 16:56:00.1 [SBP01   ] Fix32.thisnode.name10.A_CV set to Grafite by SC4BP01::BATCH PLANT OPERATOR                         
14/09/2004 16:56:00.1 [SBP01   ] Fix32.thisnode.name11.A_CV set to Ferro by SC4BP01::BATCH PLANT OPERATOR                           
14/09/2004 16:56:00.1 [SBP01   ] Fix32.thisnode.name12.A_CV set to Nitrato by SC4BP01::BATCH PLANT OPERATOR                         
14/09/2004 16:56:00.1 [SBP01   ] Fix32.thisnode.name14.A_CV set to Selenio by SC4BP01::BATCH PLANT OPERATOR                         
14/09/2004 16:56:00.1 [SBP01   ] Fix32.thisnode.name15.A_CV set to Cobalto by SC4BP01::BATCH PLANT OPERATOR                         
14/09/2004 16:56:00.1 [SBP01   ] Fix32.thisnode.name16.A_CV set to Ferro by SC4BP01::BATCH PLANT OPERATOR                           
14/09/2004 16:56:00.2 [SBP01   ] Fix32.thisnode.name20.A_CV set to Caco by SC4BP01::BATCH PLANT OPERATOR                            
14/09/2004 16:56:00.2 [SBP01   ] Fix32.thisnode.name50.A_CV set to  gua by SC4BP01::BATCH PLANT OPERATOR                            
14/09/2004 16:56:00.2 [SBP01   ] Fix32.thisnode.name51.A_CV set to Vapor by SC4BP01::BATCH PLANT OPERATOR                           
14/09/2004 16:56:00.2 [SBP01   ] Fix32.thisnode.name201.A_CV set to Mst 1 seco by SC4BP01::BATCH PLANT OPERATOR                     
14/09/2004 16:56:00.2 [SBP01   ] Fix32.thisnode.name202.A_CV set to Mst 2 seco by SC4BP01::BATCH PLANT OPERATOR                     
14/09/2004 16:56:00.2 [SBP01   ] Fix32.thisnode.name203.A_CV set to Mst 1  mido by SC4BP01::BATCH PLANT OPERATOR                    
14/09/2004 16:56:00.2 [SBP01   ] Fix32.thisnode.name204.A_CV set to Mst 2  mido by SC4BP01::BATCH PLANT OPERATOR                    
14/09/2004 16:57:46.2 [SBP01   ] Fix32.sbp01.Bu1_gate_permission.f_cv set to 0 by SC4BP01::BATCH PLANT OPERATOR                     
14/09/2004 16:57:51.0 [SBP01   ] S1_INTAKE_START_FROM_RH1                           1      S1_intake_start_from_rh1                
14/09/2004 16:57:51.0 [SBP01   ] Fix32.SBP01.s1_intake_start_from_rh1.f_CV set to 1 by SC4BP01::BATCH PLANT OPERATOR                
14/09/2004 17:00:00.3 [SBP01   ] Fix32.thisnode.name1.A_CV set to Areia 1 by SC4BP01::BATCH PLANT OPERATOR                          
14/09/2004 17:00:00.3 [SBP01   ] Fix32.thisnode.name2.A_CV set to Areia 2 by SC4BP01::BATCH PLANT OPERATOR                          
14/09/2004 17:00:00.3 [SBP01   ] Fix32.thisnode.name3.A_CV set to Dolomita by SC4BP01::BATCH PLANT OPERATOR                         
14/09/2004 17:00:00.3 [SBP01   ] Fix32.thisnode.name4.A_CV set to Calcario by SC4BP01::BATCH PLANT OPERATOR                         
14/09/2004 17:00:00.3 [SBP01   ] Fix32.thisnode.name5.A_CV set to Reserva by SC4BP01::BATCH PLANT OPERATOR                          
14/09/2004 17:00:00.3 [SBP01   ] Fix32.thisnode.name6.A_CV set to Barrilha by SC4BP01::BATCH PLANT OPERATOR                         
14/09/2004 17:00:00.4 [SBP01   ] Fix32.thisnode.name7.A_CV set to Feldspato by SC4BP01::BATCH PLANT OPERATOR                        
14/09/2004 17:00:00.4 [SBP01   ] Fix32.thisnode.name8.A_CV set to Sulfato by SC4BP01::BATCH PLANT OPERATOR                          
14/09/2004 17:00:00.4 [SBP01   ] Fix32.thisnode.name9.A_CV set to Po de EP by SC4BP01::BATCH PLANT OPERATOR                         
14/09/2004 17:00:00.4 [SBP01   ] Fix32.thisnode.name10.A_CV set to Grafite by SC4BP01::BATCH PLANT OPERATOR                         
14/09/2004 17:00:00.5 [SBP01   ] Fix32.thisnode.name11.A_CV set to Ferro by SC4BP01::BATCH PLANT OPERATOR                           
14/09/2004 17:00:00.5 [SBP01   ] Fix32.thisnode.name12.A_CV set to Nitrato by SC4BP01::BATCH PLANT OPERATOR                         
14/09/2004 17:00:00.5 [SBP01   ] Fix32.thisnode.name14.A_CV set to Selenio by SC4BP01::BATCH PLANT OPERATOR                         
14/09/2004 17:00:00.5 [SBP01   ] Fix32.thisnode.name15.A_CV set to Cobalto by SC4BP01::BATCH PLANT OPERATOR                         
14/09/2004 17:00:00.5 [SBP01   ] Fix32.thisnode.name16.A_CV set to Ferro by SC4BP01::BATCH PLANT OPERATOR                           
14/09/2004 17:00:00.6 [SBP01   ] Fix32.thisnode.name20.A_CV set to Caco by SC4BP01::BATCH PLANT OPERATOR                            
14/09/2004 17:00:00.6 [SBP01   ] Fix32.thisnode.name50.A_CV set to  gua by SC4BP01::BATCH PLANT OPERATOR                            
14/09/2004 17:00:00.6 [SBP01   ] Fix32.thisnode.name51.A_CV set to Vapor by SC4BP01::BATCH PLANT OPERATOR                           
14/09/2004 17:00:00.7 [SBP01   ] Fix32.thisnode.name201.A_CV set to Mst 1 seco by SC4BP01::BATCH PLANT OPERATOR                     
14/09/2004 17:00:00.7 [SBP01   ] Fix32.thisnode.name202.A_CV set to Mst 2 seco by SC4BP01::BATCH PLANT OPERATOR                     
14/09/2004 17:00:00.7 [SBP01   ] Fix32.thisnode.name203.A_CV set to Mst 1  mido by SC4BP01::BATCH PLANT OPERATOR                    
14/09/2004 17:00:00.8 [SBP01   ] Fix32.thisnode.name204.A_CV set to Mst 2  mido by SC4BP01::BATCH PLANT OPERATOR                    
14/09/2004 17:00:41.0 SC4CE02 SECURITY VIOLATION: COLD END OPERATOR access to APPLICATION FEATURE System User Login                 
14/09/2004 17:00:41.4 COLD END OPERATOR  logged out as Application User                                                             
14/09/2004 17:00:43.7 PRODUCTION ENGINEERS  logged in as Application User                                                           
14/09/2004 17:02:31.7 [SCE01   ] CE_M701_ANM_SAFETY_AREA        CFN             CLOSE      CE M701 SAFETY AREA                     
14/09/2004 17:02:31.9 [SCE01   ] CE_M701_ANM_SAFETY_AREA        CFN             CLOSE      CE M701 SAFETY AREA                     
14/09/2004 17:03:13.5 SC4CE02 SECURITY VIOLATION: PRODUCTION ENGINEERS access to APPLICATION FEATURE System User Login              
14/09/2004 17:03:13.6 [SCE01   ] CE_M701_ANM_SAFETY_AREA        OK               OPEN      CE M701 SAFETY AREA                     
14/09/2004 17:03:12.8 [SCE01   ] CE_M701_ANM_SAFETY_AREA        OK               OPEN      CE M701 SAFETY AREA                     
14/09/2004 17:03:13.9 PRODUCTION ENGINEERS  logged out as Application User                                                          
14/09/2004 17:03:15.9 COLD END OPERATOR  logged in as Application User                                                              
14/09/2004 17:03:59.9 [SBP01   ] Fix32.thisnode.name1.A_CV set to Areia 1 by SC4BP01::BATCH PLANT OPERATOR                          
14/09/2004 17:03:59.9 [SBP01   ] Fix32.thisnode.name2.A_CV set to Areia 2 by SC4BP01::BATCH PLANT OPERATOR                          
14/09/2004 17:04:00.0 [SBP01   ] Fix32.thisnode.name3.A_CV set to Dolomita by SC4BP01::BATCH PLANT OPERATOR                         
14/09/2004 17:04:00.0 [SBP01   ] Fix32.thisnode.name4.A_CV set to Calcario by SC4BP01::BATCH PLANT OPERATOR                         
14/09/2004 17:04:00.0 [SBP01   ] Fix32.thisnode.name5.A_CV set to Reserva by SC4BP01::BATCH PLANT OPERATOR                          
14/09/2004 17:04:00.0 [SBP01   ] Fix32.thisnode.name6.A_CV set to Barrilha by SC4BP01::BATCH PLANT OPERATOR                         
14/09/2004 17:04:00.0 [SBP01   ] Fix32.thisnode.name7.A_CV set to Feldspato by SC4BP01::BATCH PLANT OPERATOR                        
14/09/2004 17:04:00.1 [SBP01   ] Fix32.thisnode.name8.A_CV set to Sulfato by SC4BP01::BATCH PLANT OPERATOR                          
14/09/2004 17:04:00.1 [SBP01   ] Fix32.thisnode.name9.A_CV set to Po de EP by SC4BP01::BATCH PLANT OPERATOR                         
14/09/2004 17:04:00.1 [SBP01   ] Fix32.thisnode.name10.A_CV set to Grafite by SC4BP01::BATCH PLANT OPERATOR                         
14/09/2004 17:04:00.1 [SBP01   ] Fix32.thisnode.name11.A_CV set to Ferro by SC4BP01::BATCH PLANT OPERATOR                           
14/09/2004 17:04:00.1 [SBP01   ] Fix32.thisnode.name12.A_CV set to Nitrato by SC4BP01::BATCH PLANT OPERATOR                         
14/09/2004 17:04:00.1 [SBP01   ] Fix32.thisnode.name14.A_CV set to Selenio by SC4BP01::BATCH PLANT OPERATOR                         
14/09/2004 17:04:00.1 [SBP01   ] Fix32.thisnode.name15.A_CV set to Cobalto by SC4BP01::BATCH PLANT OPERATOR                         
14/09/2004 17:04:00.2 [SBP01   ] Fix32.thisnode.name16.A_CV set to Ferro by SC4BP01::BATCH PLANT OPERATOR                           
14/09/2004 17:04:00.2 [SBP01   ] Fix32.thisnode.name20.A_CV set to Caco by SC4BP01::BATCH PLANT OPERATOR                            
14/09/2004 17:04:00.2 [SBP01   ] Fix32.thisnode.name50.A_CV set to  gua by SC4BP01::BATCH PLANT OPERATOR                            
14/09/2004 17:04:00.2 [SBP01   ] Fix32.thisnode.name51.A_CV set to Vapor by SC4BP01::BATCH PLANT OPERATOR                           
14/09/2004 17:04:00.2 [SBP01   ] Fix32.thisnode.name201.A_CV set to Mst 1 seco by SC4BP01::BATCH PLANT OPERATOR                     
14/09/2004 17:04:00.2 [SBP01   ] Fix32.thisnode.name202.A_CV set to Mst 2 seco by SC4BP01::BATCH PLANT OPERATOR                     
14/09/2004 17:04:00.2 [SBP01   ] Fix32.thisnode.name203.A_CV set to Mst 1  mido by SC4BP01::BATCH PLANT OPERATOR                    
14/09/2004 17:04:00.3 [SBP01   ] Fix32.thisnode.name204.A_CV set to Mst 2  mido by SC4BP01::BATCH PLANT OPERATOR                    
14/09/2004 17:08:00.0 [SBP01   ] Fix32.thisnode.name1.A_CV set to Areia 1 by SC4BP01::BATCH PLANT OPERATOR                          
14/09/2004 17:08:00.0 [SBP01   ] Fix32.thisnode.name2.A_CV set to Areia 2 by SC4BP01::BATCH PLANT OPERATOR                          
14/09/2004 17:08:00.0 [SBP01   ] Fix32.thisnode.name3.A_CV set to Dolomita by SC4BP01::BATCH PLANT OPERATOR                         
14/09/2004 17:08:00.0 [SBP01   ] Fix32.thisnode.name4.A_CV set to Calcario by SC4BP01::BATCH PLANT OPERATOR                         
14/09/2004 17:08:00.0 [SBP01   ] Fix32.thisnode.name5.A_CV set to Reserva by SC4BP01::BATCH PLANT OPERATOR                          
14/09/2004 17:08:00.0 [SBP01   ] Fix32.thisnode.name6.A_CV set to Barrilha by SC4BP01::BATCH PLANT OPERATOR                         
14/09/2004 17:08:00.0 [SBP01   ] Fix32.thisnode.name7.A_CV set to Feldspato by SC4BP01::BATCH PLANT OPERATOR                        
14/09/2004 17:08:00.1 [SBP01   ] Fix32.thisnode.name8.A_CV set to Sulfato by SC4BP01::BATCH PLANT OPERATOR                          
14/09/2004 17:08:00.1 [SBP01   ] Fix32.thisnode.name9.A_CV set to Po de EP by SC4BP01::BATCH PLANT OPERATOR                         
14/09/2004 17:08:00.1 [SBP01   ] Fix32.thisnode.name10.A_CV set to Grafite by SC4BP01::BATCH PLANT OPERATOR                         
14/09/2004 17:08:00.1 [SBP01   ] Fix32.thisnode.name11.A_CV set to Ferro by SC4BP01::BATCH PLANT OPERATOR                           
14/09/2004 17:08:05.6 [SCE01   ] CE_M601_ANM_SAFETY_AREA        CFN             CLOSE      CE M601 SAFETY AREA                     
14/09/2004 17:08:05.9 [SCE01   ] CE_M601_ANM_SAFETY_AREA        CFN             CLOSE      CE M601 SAFETY AREA                     
14/09/2004 17:08:00.1 [SBP01   ] Fix32.thisnode.name12.A_CV set to Nitrato by SC4BP01::BATCH PLANT OPERATOR                         
14/09/2004 17:08:00.2 [SBP01   ] Fix32.thisnode.name14.A_CV set to Selenio by SC4BP01::BATCH PLANT OPERATOR                         
14/09/2004 17:08:00.2 [SBP01   ] Fix32.thisnode.name15.A_CV set to Cobalto by SC4BP01::BATCH PLANT OPERATOR                         
14/09/2004 17:08:00.2 [SBP01   ] Fix32.thisnode.name16.A_CV set to Ferro by SC4BP01::BATCH PLANT OPERATOR                           
14/09/2004 17:08:00.2 [SBP01   ] Fix32.thisnode.name20.A_CV set to Caco by SC4BP01::BATCH PLANT OPERATOR                            
14/09/2004 17:08:00.2 [SBP01   ] Fix32.thisnode.name50.A_CV set to  gua by SC4BP01::BATCH PLANT OPERATOR                            
14/09/2004 17:08:00.2 [SBP01   ] Fix32.thisnode.name51.A_CV set to Vapor by SC4BP01::BATCH PLANT OPERATOR                           
14/09/2004 17:08:00.2 [SBP01   ] Fix32.thisnode.name201.A_CV set to Mst 1 seco by SC4BP01::BATCH PLANT OPERATOR                     
14/09/2004 17:08:00.3 [SBP01   ] Fix32.thisnode.name202.A_CV set to Mst 2 seco by SC4BP01::BATCH PLANT OPERATOR                     
14/09/2004 17:08:00.3 [SBP01   ] Fix32.thisnode.name203.A_CV set to Mst 1  mido by SC4BP01::BATCH PLANT OPERATOR                    
14/09/2004 17:08:00.3 [SBP01   ] Fix32.thisnode.name204.A_CV set to Mst 2  mido by SC4BP01::BATCH PLANT OPERATOR                    
14/09/2004 17:08:21.3 [SBP01   ] BC5_m1_ALARM_03 ALARM is acknowledged by WC4BP01::BATCH PLANT OPERATOR                             
14/09/2004 17:08:24.0 [SBP01   ] Fix32.SBP01.BC5_m1_ALARM_WORD.F_CV set to 0 by WC4BP01::BATCH PLANT OPERATOR                       
14/09/2004 17:08:24.6 [SBP01   ] BC5_m1_ALARM_WORD ALARM is acknowledged by WC4BP01::BATCH PLANT OPERATOR                           
14/09/2004 17:08:28.6 [SBP01   ] Fix32.SBP01.BC5_m1_ALARM_WORD.F_CV set to 0 by WC4BP01::BATCH PLANT OPERATOR                       
14/09/2004 17:08:29.1 [SBP01   ] BC5_m1_ALARM_WORD ALARM is acknowledged by WC4BP01::BATCH PLANT OPERATOR                           
14/09/2004 17:08:34.2 [SBP01   ] Fix32.SBP01.BC5_m1_ALARM_WORD.F_CV set to 0 by WC4BP01::BATCH PLANT OPERATOR                       
14/09/2004 17:08:40.2 [SBP01   ] Fix32.sbp01.alltime1.f_cv set to 1 by WC4BP01::BATCH PLANT OPERATOR                                
14/09/2004 17:08:42.8 [SBP01   ] FURNACE_HOPPER_ALARM_WORD ALARM is acknowledged by WC4BP01::BATCH PLANT OPERATOR                   
14/09/2004 17:08:42.9 [SBP01   ] FURNACE_HOPPER_ALARM_WORD ALARM is acknowledged by WC4BP01::BATCH PLANT OPERATOR                   
14/09/2004 17:08:43.9 [SBP01   ] FURNACE_HOPPER_ALARM_07 ALARM is acknowledged by WC4BP01::BATCH PLANT OPERATOR                     
14/09/2004 17:08:44.0 [SBP01   ] FURNACE_HOPPER_ALARM_07 ALARM is acknowledged by WC4BP01::BATCH PLANT OPERATOR                     
14/09/2004 17:08:45.8 [SBP01   ] FURNACE_HOPPER_ALARM_09 ALARM is acknowledged by WC4BP01::BATCH PLANT OPERATOR                     
14/09/2004 17:08:46.0 [SBP01   ] FURNACE_HOPPER_ALARM_09 ALARM is acknowledged by WC4BP01::BATCH PLANT OPERATOR                     
14/09/2004 17:08:47.1 [SBP01   ] MX2_SEQUENCE_ALARM_WORD ALARM is acknowledged by WC4BP01::BATCH PLANT OPERATOR                     
14/09/2004 17:08:47.3 [SBP01   ] MX2_SEQUENCE_ALARM_WORD ALARM is acknowledged by WC4BP01::BATCH PLANT OPERATOR                     
14/09/2004 17:08:48.8 [SBP01   ] MX2_SEQUENCE_ALARM_06 ALARM is acknowledged by WC4BP01::BATCH PLANT OPERATOR                       
14/09/2004 17:08:48.9 [SBP01   ] MX2_SEQUENCE_ALARM_06 ALARM is acknowledged by WC4BP01::BATCH PLANT OPERATOR                       
14/09/2004 17:09:18.9 [SCE01   ] CE_M601_ANM_SAFETY_AREA        OK               OPEN      CE M601 SAFETY AREA                     
14/09/2004 17:09:19.6 [SCE01   ] CE_M601_ANM_SAFETY_AREA        OK               OPEN      CE M601 SAFETY AREA                     
14/09/2004 17:09:22.7 [SCE01   ] CE_M601_ANM_SAFETY_AREA        CFN             CLOSE      CE M601 SAFETY AREA                     
14/09/2004 17:09:22.9 [SCE01   ] CE_M601_ANM_SAFETY_AREA        CFN             CLOSE      CE M601 SAFETY AREA                     
14/09/2004 17:09:48.8 [SCE01   ] CE_M601_ANM_SAFETY_AREA        OK               OPEN      CE M601 SAFETY AREA                     
14/09/2004 17:09:49.6 [SCE01   ] CE_M601_ANM_SAFETY_AREA        OK               OPEN      CE M601 SAFETY AREA                     
14/09/2004 17:11:59.9 [SBP01   ] Fix32.thisnode.name1.A_CV set to Areia 1 by SC4BP01::BATCH PLANT OPERATOR                          
14/09/2004 17:11:59.9 [SBP01   ] Fix32.thisnode.name2.A_CV set to Areia 2 by SC4BP01::BATCH PLANT OPERATOR                          
14/09/2004 17:11:59.9 [SBP01   ] Fix32.thisnode.name3.A_CV set to Dolomita by SC4BP01::BATCH PLANT OPERATOR                         
14/09/2004 17:11:59.9 [SBP01   ] Fix32.thisnode.name4.A_CV set to Calcario by SC4BP01::BATCH PLANT OPERATOR                         
14/09/2004 17:12:00.0 [SBP01   ] Fix32.thisnode.name5.A_CV set to Reserva by SC4BP01::BATCH PLANT OPERATOR                          
14/09/2004 17:12:00.0 [SBP01   ] Fix32.thisnode.name6.A_CV set to Barrilha by SC4BP01::BATCH PLANT OPERATOR                         
14/09/2004 17:12:00.0 [SBP01   ] Fix32.thisnode.name7.A_CV set to Feldspato by SC4BP01::BATCH PLANT OPERATOR                        
14/09/2004 17:12:00.0 [SBP01   ] Fix32.thisnode.name8.A_CV set to Sulfato by SC4BP01::BATCH PLANT OPERATOR                          
14/09/2004 17:12:00.0 [SBP01   ] Fix32.thisnode.name9.A_CV set to Po de EP by SC4BP01::BATCH PLANT OPERATOR                         
14/09/2004 17:12:00.0 [SBP01   ] Fix32.thisnode.name10.A_CV set to Grafite by SC4BP01::BATCH PLANT OPERATOR                         
14/09/2004 17:12:00.1 [SBP01   ] Fix32.thisnode.name11.A_CV set to Ferro by SC4BP01::BATCH PLANT OPERATOR                           
14/09/2004 17:12:00.1 [SBP01   ] Fix32.thisnode.name12.A_CV set to Nitrato by SC4BP01::BATCH PLANT OPERATOR                         
14/09/2004 17:12:00.1 [SBP01   ] Fix32.thisnode.name14.A_CV set to Selenio by SC4BP01::BATCH PLANT OPERATOR                         
14/09/2004 17:12:00.1 [SBP01   ] Fix32.thisnode.name15.A_CV set to Cobalto by SC4BP01::BATCH PLANT OPERATOR                         
14/09/2004 17:12:00.1 [SBP01   ] Fix32.thisnode.name16.A_CV set to Ferro by SC4BP01::BATCH PLANT OPERATOR                           
14/09/2004 17:12:00.1 [SBP01   ] Fix32.thisnode.name20.A_CV set to Caco by SC4BP01::BATCH PLANT OPERATOR                            
14/09/2004 17:12:00.1 [SBP01   ] Fix32.thisnode.name50.A_CV set to  gua by SC4BP01::BATCH PLANT OPERATOR                            
14/09/2004 17:12:00.2 [SBP01   ] Fix32.thisnode.name51.A_CV set to Vapor by SC4BP01::BATCH PLANT OPERATOR                           
14/09/2004 17:12:00.2 [SBP01   ] Fix32.thisnode.name201.A_CV set to Mst 1 seco by SC4BP01::BATCH PLANT OPERATOR                     
14/09/2004 17:12:00.2 [SBP01   ] Fix32.thisnode.name202.A_CV set to Mst 2 seco by SC4BP01::BATCH PLANT OPERATOR                     
14/09/2004 17:12:00.2 [SBP01   ] Fix32.thisnode.name203.A_CV set to Mst 1  mido by SC4BP01::BATCH PLANT OPERATOR                    
14/09/2004 17:12:00.2 [SBP01   ] Fix32.thisnode.name204.A_CV set to Mst 2  mido by SC4BP01::BATCH PLANT OPERATOR                    
14/09/2004 17:15:20.2 [SBP01   ] S1_INTAKE_START_FROM_RH1                           0      S1_intake_start_from_rh1                
14/09/2004 17:15:20.2 [SBP01   ] Fix32.SBP01.s1_intake_start_from_rh1.f_CV set to 0 by SC4BP01::BATCH PLANT OPERATOR                
14/09/2004 17:15:59.9 [SBP01   ] Fix32.thisnode.name1.A_CV set to Areia 1 by SC4BP01::BATCH PLANT OPERATOR                          
14/09/2004 17:15:59.9 [SBP01   ] Fix32.thisnode.name2.A_CV set to Areia 2 by SC4BP01::BATCH PLANT OPERATOR                          
14/09/2004 17:15:59.9 [SBP01   ] Fix32.thisnode.name3.A_CV set to Dolomita by SC4BP01::BATCH PLANT OPERATOR                         
14/09/2004 17:16:00.0 [SBP01   ] Fix32.thisnode.name4.A_CV set to Calcario by SC4BP01::BATCH PLANT OPERATOR                         
14/09/2004 17:16:00.0 [SBP01   ] Fix32.thisnode.name5.A_CV set to Reserva by SC4BP01::BATCH PLANT OPERATOR                          
14/09/2004 17:16:00.0 [SBP01   ] Fix32.thisnode.name6.A_CV set to Barrilha by SC4BP01::BATCH PLANT OPERATOR                         
14/09/2004 17:16:00.0 [SBP01   ] Fix32.thisnode.name7.A_CV set to Feldspato by SC4BP01::BATCH PLANT OPERATOR                        
14/09/2004 17:16:00.0 [SBP01   ] Fix32.thisnode.name8.A_CV set to Sulfato by SC4BP01::BATCH PLANT OPERATOR                          
14/09/2004 17:16:00.0 [SBP01   ] Fix32.thisnode.name9.A_CV set to Po de EP by SC4BP01::BATCH PLANT OPERATOR                         
14/09/2004 17:16:00.1 [SBP01   ] Fix32.thisnode.name10.A_CV set to Grafite by SC4BP01::BATCH PLANT OPERATOR                         
14/09/2004 17:16:00.1 [SBP01   ] Fix32.thisnode.name11.A_CV set to Ferro by SC4BP01::BATCH PLANT OPERATOR                           
14/09/2004 17:16:00.1 [SBP01   ] Fix32.thisnode.name12.A_CV set to Nitrato by SC4BP01::BATCH PLANT OPERATOR                         
14/09/2004 17:16:00.1 [SBP01   ] Fix32.thisnode.name14.A_CV set to Selenio by SC4BP01::BATCH PLANT OPERATOR                         
14/09/2004 17:16:00.1 [SBP01   ] Fix32.thisnode.name15.A_CV set to Cobalto by SC4BP01::BATCH PLANT OPERATOR                         
14/09/2004 17:16:00.1 [SBP01   ] Fix32.thisnode.name16.A_CV set to Ferro by SC4BP01::BATCH PLANT OPERATOR                           
14/09/2004 17:16:00.2 [SBP01   ] Fix32.thisnode.name20.A_CV set to Caco by SC4BP01::BATCH PLANT OPERATOR                            
14/09/2004 17:16:00.2 [SBP01   ] Fix32.thisnode.name50.A_CV set to  gua by SC4BP01::BATCH PLANT OPERATOR                            
14/09/2004 17:16:00.2 [SBP01   ] Fix32.thisnode.name51.A_CV set to Vapor by SC4BP01::BATCH PLANT OPERATOR                           
14/09/2004 17:16:00.2 [SBP01   ] Fix32.thisnode.name201.A_CV set to Mst 1 seco by SC4BP01::BATCH PLANT OPERATOR                     
14/09/2004 17:16:00.2 [SBP01   ] Fix32.thisnode.name202.A_CV set to Mst 2 seco by SC4BP01::BATCH PLANT OPERATOR                     
14/09/2004 17:16:00.2 [SBP01   ] Fix32.thisnode.name203.A_CV set to Mst 1  mido by SC4BP01::BATCH PLANT OPERATOR                    
14/09/2004 17:16:00.2 [SBP01   ] Fix32.thisnode.name204.A_CV set to Mst 2  mido by SC4BP01::BATCH PLANT OPERATOR                    
14/09/2004 17:20:00.5 [SBP01   ] Fix32.thisnode.name1.A_CV set to Areia 1 by SC4BP01::BATCH PLANT OPERATOR                          
14/09/2004 17:20:00.5 [SBP01   ] Fix32.thisnode.name2.A_CV set to Areia 2 by SC4BP01::BATCH PLANT OPERATOR                          
14/09/2004 17:20:00.5 [SBP01   ] Fix32.thisnode.name3.A_CV set to Dolomita by SC4BP01::BATCH PLANT OPERATOR                         
14/09/2004 17:20:00.5 [SBP01   ] Fix32.thisnode.name4.A_CV set to Calcario by SC4BP01::BATCH PLANT OPERATOR                         
14/09/2004 17:20:00.5 [SBP01   ] Fix32.thisnode.name5.A_CV set to Reserva by SC4BP01::BATCH PLANT OPERATOR                          
14/09/2004 17:20:00.6 [SBP01   ] Fix32.thisnode.name6.A_CV set to Barrilha by SC4BP01::BATCH PLANT OPERATOR                         
14/09/2004 17:20:00.6 [SBP01   ] Fix32.thisnode.name7.A_CV set to Feldspato by SC4BP01::BATCH PLANT OPERATOR                        
14/09/2004 17:20:00.7 [SBP01   ] Fix32.thisnode.name8.A_CV set to Sulfato by SC4BP01::BATCH PLANT OPERATOR                          
14/09/2004 17:20:00.7 [SBP01   ] Fix32.thisnode.name9.A_CV set to Po de EP by SC4BP01::BATCH PLANT OPERATOR                         
14/09/2004 17:20:00.7 [SBP01   ] Fix32.thisnode.name10.A_CV set to Grafite by SC4BP01::BATCH PLANT OPERATOR                         
14/09/2004 17:20:00.8 [SBP01   ] Fix32.thisnode.name11.A_CV set to Ferro by SC4BP01::BATCH PLANT OPERATOR                           
14/09/2004 17:20:00.8 [SBP01   ] Fix32.thisnode.name12.A_CV set to Nitrato by SC4BP01::BATCH PLANT OPERATOR                         
14/09/2004 17:20:00.8 [SBP01   ] Fix32.thisnode.name14.A_CV set to Selenio by SC4BP01::BATCH PLANT OPERATOR                         
14/09/2004 17:20:00.8 [SBP01   ] Fix32.thisnode.name15.A_CV set to Cobalto by SC4BP01::BATCH PLANT OPERATOR                         
14/09/2004 17:20:00.9 [SBP01   ] Fix32.thisnode.name16.A_CV set to Ferro by SC4BP01::BATCH PLANT OPERATOR                           
14/09/2004 17:20:00.9 [SBP01   ] Fix32.thisnode.name20.A_CV set to Caco by SC4BP01::BATCH PLANT OPERATOR                            
14/09/2004 17:20:00.9 [SBP01   ] Fix32.thisnode.name50.A_CV set to  gua by SC4BP01::BATCH PLANT OPERATOR                            
14/09/2004 17:20:01.0 [SBP01   ] Fix32.thisnode.name51.A_CV set to Vapor by SC4BP01::BATCH PLANT OPERATOR                           
14/09/2004 17:20:01.0 [SBP01   ] Fix32.thisnode.name201.A_CV set to Mst 1 seco by SC4BP01::BATCH PLANT OPERATOR                     
14/09/2004 17:20:01.0 [SBP01   ] Fix32.thisnode.name202.A_CV set to Mst 2 seco by SC4BP01::BATCH PLANT OPERATOR                     
14/09/2004 17:20:01.0 [SBP01   ] Fix32.thisnode.name203.A_CV set to Mst 1  mido by SC4BP01::BATCH PLANT OPERATOR                    
14/09/2004 17:20:01.1 [SBP01   ] Fix32.thisnode.name204.A_CV set to Mst 2  mido by SC4BP01::BATCH PLANT OPERATOR                    
14/09/2004 17:21:10.9 [SCE01   ] CE_M504_ANM_TIMEOUT_VACUUM     CFN             CLOSE      CE M504 TIME OUT VACUUM                 
14/09/2004 17:21:11.7 [SCE01   ] CE_M504_ANM_TIMEOUT_VACUUM     CFN             CLOSE      CE M504 TIME OUT VACUUM                 
14/09/2004 17:23:47.6 [SCE01   ] CE_M504_ANM_TIMEOUT_VACUUM     OK               OPEN      CE M504 TIME OUT VACUUM                 
14/09/2004 17:23:47.9 [SCE01   ] CE_M504_ANM_TIMEOUT_VACUUM     OK               OPEN      CE M504 TIME OUT VACUUM                 
14/09/2004 17:24:14.7 [SCE01   ] CE_M347_ANM_SAFETY_AREA        CFN             CLOSE      CE M347 SAFETY AREA                     
14/09/2004 17:24:15.0 [SCE01   ] CE_M347_ANM_SAFETY_AREA        CFN             CLOSE      CE M347 SAFETY AREA                     
14/09/2004 17:25:30.7 [SHE03   ] ALL ALARMS acknowledged by SC4BP02::BATCH RECIPE                                                   
14/09/2004 17:25:31.6 [SCE01   ] CE_M347_ANM_SAFETY_AREA        OK               OPEN      CE M347 SAFETY AREA                     
14/09/2004 17:25:32.9 [SCE01   ] CE_M347_ANM_SAFETY_AREA        OK               OPEN      CE M347 SAFETY AREA                     
14/09/2004 17:25:42.8 SC4BP01 SECURITY VIOLATION: BATCH PLANT OPERATOR access to APPLICATION FEATURE System User Login              
14/09/2004 17:25:46.6 BATCH PLANT OPERATOR  logged out as Application User                                                          
14/09/2004 17:25:46.7 SC4BP01 SECURITY VIOLATION:  access to SECURITY AREA A                                                        
14/09/2004 17:25:46.7 SC4BP01 SECURITY VIOLATION:  access to SECURITY AREA A                                                        
14/09/2004 17:25:46.7 SC4BP01 SECURITY VIOLATION:  access to SECURITY AREA A                                                        
14/09/2004 17:25:47.7 SC4BP01 SECURITY VIOLATION:  access to SECURITY AREA A                                                        
14/09/2004 17:25:47.8 SC4BP01 SECURITY VIOLATION:  access to SECURITY AREA A                                                        
14/09/2004 17:25:47.8 SC4BP01 SECURITY VIOLATION:  access to SECURITY AREA A                                                        
14/09/2004 17:25:47.8 SC4BP01 SECURITY VIOLATION:  access to SECURITY AREA A                                                        
14/09/2004 17:25:47.8 SC4BP01 SECURITY VIOLATION:  access to SECURITY AREA A                                                        
14/09/2004 17:26:02.5 [SBP01   ] S5_ANALOG_ALARM_00 ALARM is removed by SC4BP01::BATCH RECIPE                                       
14/09/2004 17:26:02.6 [SBP01   ] S4_ANALOG_ALARM_05 ALARM is removed by SC4BP01::BATCH RECIPE                                       
14/09/2004 17:26:02.6 [SBP01   ] S4_ANALOG_ALARM_04 ALARM is removed by SC4BP01::BATCH RECIPE                                       
14/09/2004 17:26:02.6 [SBP01   ] S5_ALARM_01 ALARM is removed by SC4BP01::BATCH RECIPE                                              
14/09/2004 17:26:02.6 [SBP01   ] S5_ALARM_00 ALARM is removed by SC4BP01::BATCH RECIPE                                              
14/09/2004 17:26:02.6 [SBP01   ] S4_ALARM_05 ALARM is removed by SC4BP01::BATCH RECIPE                                              
14/09/2004 17:26:02.6 [SBP01   ] S4_ALARM_04 ALARM is removed by SC4BP01::BATCH RECIPE                                              
14/09/2004 17:26:02.7 [SBP01   ] S4_ALARM_03 ALARM is removed by SC4BP01::BATCH RECIPE                                              
14/09/2004 17:26:02.7 [SBP01   ] S4_ALARM_02 ALARM is removed by SC4BP01::BATCH RECIPE                                              
14/09/2004 17:26:02.7 [SBP01   ] S4_ALARM_01 ALARM is removed by SC4BP01::BATCH RECIPE                                              
14/09/2004 17:26:10.5 [SBP01   ] SF7_M1_ANALOG_ALARM_02 ALARM is removed by SC4BP01::BATCH RECIPE                                   
14/09/2004 17:26:10.5 [SBP01   ] SF7_M1_ANALOG_ALARM_01 ALARM is removed by SC4BP01::BATCH RECIPE                                   
14/09/2004 17:26:10.5 [SBP01   ] SF7_M1_ANALOG_ALARM_00 ALARM is removed by SC4BP01::BATCH RECIPE                                   
14/09/2004 17:26:10.5 [SBP01   ] SF6_M1_ANALOG_ALARM_05 ALARM is removed by SC4BP01::BATCH RECIPE                                   
14/09/2004 17:26:10.6 [SBP01   ] SF6_M1_ANALOG_ALARM_04 ALARM is removed by SC4BP01::BATCH RECIPE                                   
14/09/2004 17:26:10.6 [SBP01   ] SF6_M1_ANALOG_ALARM_03 ALARM is removed by SC4BP01::BATCH RECIPE                                   
14/09/2004 17:26:10.6 [SBP01   ] SF6_M1_ANALOG_ALARM_02 ALARM is removed by SC4BP01::BATCH RECIPE                                   
14/09/2004 17:26:10.6 [SBP01   ] SF6_M1_ANALOG_ALARM_01 ALARM is removed by SC4BP01::BATCH RECIPE                                   
14/09/2004 17:26:10.6 [SBP01   ] SF6_M1_ANALOG_ALARM_00 ALARM is removed by SC4BP01::BATCH RECIPE                                   
14/09/2004 17:26:10.6 [SBP01   ] SF5_M1_ANALOG_ALARM_05 ALARM is removed by SC4BP01::BATCH RECIPE                                   
14/09/2004 17:26:17.7 [SHE03   ] ALL ALARMS acknowledged by SC4BP01::BATCH RECIPE                                                   
14/09/2004 17:26:16.5 [SBP01   ] SF9_M1_ALARM_11 ALARM is removed by SC4BP01::BATCH RECIPE                                          
14/09/2004 17:26:16.5 [SBP01   ] SF9_M1_ALARM_05 ALARM is removed by SC4BP01::BATCH RECIPE                                          
14/09/2004 17:26:16.6 [SBP01   ] SF9_M1_ALARM_04 ALARM is removed by SC4BP01::BATCH RECIPE                                          
14/09/2004 17:26:16.6 [SBP01   ] SF9_M1_ALARM_03 ALARM is removed by SC4BP01::BATCH RECIPE                                          
14/09/2004 17:26:16.6 [SBP01   ] SF9_M1_ALARM_02 ALARM is removed by SC4BP01::BATCH RECIPE                                          
14/09/2004 17:26:16.6 [SBP01   ] SF9_M1_ALARM_00 ALARM is removed by SC4BP01::BATCH RECIPE                                          
14/09/2004 17:26:16.6 [SBP01   ] SF8_M1_ALARM_15 ALARM is removed by SC4BP01::BATCH RECIPE                                          
14/09/2004 17:26:16.6 [SBP01   ] SF8_M1_ALARM_11 ALARM is removed by SC4BP01::BATCH RECIPE                                          
14/09/2004 17:26:16.6 [SBP01   ] SF8_M1_ALARM_05 ALARM is removed by SC4BP01::BATCH RECIPE                                          
14/09/2004 17:26:16.7 [SBP01   ] SF8_M1_ALARM_04 ALARM is removed by SC4BP01::BATCH RECIPE                                          
14/09/2004 17:26:16.7 [SBP01   ] SF8_M1_ALARM_03 ALARM is removed by SC4BP01::BATCH RECIPE                                          
14/09/2004 17:26:16.7 [SBP01   ] SF8_M1_ALARM_02 ALARM is removed by SC4BP01::BATCH RECIPE                                          
14/09/2004 17:26:16.7 [SBP01   ] SF8_M1_ALARM_00 ALARM is removed by SC4BP01::BATCH RECIPE                                          
14/09/2004 17:26:16.7 [SBP01   ] SF7_M1_ALARM_15 ALARM is removed by SC4BP01::BATCH RECIPE                                          
14/09/2004 17:26:16.7 [SBP01   ] SF7_M1_ALARM_11 ALARM is removed by SC4BP01::BATCH RECIPE                                          
14/09/2004 17:26:16.8 [SBP01   ] SF7_M1_ALARM_05 ALARM is removed by SC4BP01::BATCH RECIPE                                          
14/09/2004 17:26:16.8 [SBP01   ] SF7_M1_ALARM_04 ALARM is removed by SC4BP01::BATCH RECIPE                                          
14/09/2004 17:26:16.8 [SBP01   ] SF7_M1_ALARM_03 ALARM is removed by SC4BP01::BATCH RECIPE                                          
14/09/2004 17:26:16.8 [SBP01   ] SF7_M1_ALARM_02 ALARM is removed by SC4BP01::BATCH RECIPE                                          
14/09/2004 17:26:16.8 [SBP01   ] SF7_M1_ALARM_00 ALARM is removed by SC4BP01::BATCH RECIPE                                          
14/09/2004 17:26:16.9 [SBP01   ] PROFI_PLCF10_SLAVE15_DIAG_3 ALARM is removed by SC4BP01::BATCH RECIPE                              
14/09/2004 17:26:16.9 [SBP01   ] PROFI_PLCF10_SLAVE15_DIAG_2 ALARM is removed by SC4BP01::BATCH RECIPE                              
14/09/2004 17:26:16.9 [SBP01   ] PROFI_PLCF10_SLAVE15_DIAG_1 ALARM is removed by SC4BP01::BATCH RECIPE                              
14/09/2004 17:26:16.9 [SBP01   ] PROFI_PLCF10_SLAVE14_DIAG_3 ALARM is removed by SC4BP01::BATCH RECIPE                              
14/09/2004 17:26:16.9 [SBP01   ] PROFI_PLCF10_SLAVE14_DIAG_2 ALARM is removed by SC4BP01::BATCH RECIPE                              
14/09/2004 17:26:16.9 [SBP01   ] PROFI_PLCF10_SLAVE14_DIAG_1 ALARM is removed by SC4BP01::BATCH RECIPE                              
14/09/2004 17:26:17.0 [SBP01   ] PROFI_PLCF10_SLAVE13_DIAG_3 ALARM is removed by SC4BP01::BATCH RECIPE                              
14/09/2004 17:26:17.0 [SBP01   ] PROFI_PLCF10_SLAVE13_DIAG_2 ALARM is removed by SC4BP01::BATCH RECIPE                              
14/09/2004 17:26:17.0 [SBP01   ] PROFI_PLCF10_SLAVE13_DIAG_1 ALARM is removed by SC4BP01::BATCH RECIPE                              
14/09/2004 17:26:17.0 [SBP01   ] PROFI_PLCF10_SLAVE12_DIAG_3 ALARM is removed by SC4BP01::BATCH RECIPE                              
14/09/2004 17:26:17.0 [SBP01   ] PROFI_PLCF10_SLAVE12_DIAG_2 ALARM is removed by SC4BP01::BATCH RECIPE                              
14/09/2004 17:26:17.0 [SBP01   ] PROFI_PLCF10_SLAVE12_DIAG_1 ALARM is removed by SC4BP01::BATCH RECIPE                              
14/09/2004 17:26:17.0 [SBP01   ] PROFI_PLCF10_SLAVE11_DIAG_3 ALARM is removed by SC4BP01::BATCH RECIPE                              
14/09/2004 17:26:17.1 [SBP01   ] PROFI_PLCF10_SLAVE11_DIAG_2 ALARM is removed by SC4BP01::BATCH RECIPE                              
14/09/2004 17:26:17.1 [SBP01   ] PROFI_PLCF10_SLAVE11_DIAG_1 ALARM is removed by SC4BP01::BATCH RECIPE                              
14/09/2004 17:26:17.1 [SBP01   ] PROFI_PLCF10_SLAVE10_DIAG_3 ALARM is removed by SC4BP01::BATCH RECIPE                              
