                
14/09/2004 08:00:00.3 [SBP01   ] Fix32.thisnode.name1.A_CV set to Areia 1 by SC4BP01::BATCH RECIPE                                  
14/09/2004 08:00:00.3 [SBP01   ] Fix32.thisnode.name2.A_CV set to Areia 2 by SC4BP01::BATCH RECIPE                                  
14/09/2004 08:00:00.3 [SBP01   ] Fix32.thisnode.name3.A_CV set to Dolomita by SC4BP01::BATCH RECIPE                                 
14/09/2004 08:00:00.3 [SBP01   ] Fix32.thisnode.name4.A_CV set to Calcario by SC4BP01::BATCH RECIPE                                 
14/09/2004 08:00:00.4 [SBP01   ] Fix32.thisnode.name5.A_CV set to Reserva by SC4BP01::BATCH RECIPE                                  
14/09/2004 08:00:00.4 [SBP01   ] Fix32.thisnode.name6.A_CV set to Barrilha by SC4BP01::BATCH RECIPE                                 
14/09/2004 08:00:00.4 [SBP01   ] Fix32.thisnode.name7.A_CV set to Feldspato by SC4BP01::BATCH RECIPE                                
14/09/2004 08:00:00.4 [SBP01   ] Fix32.thisnode.name8.A_CV set to Sulfato by SC4BP01::BATCH RECIPE                                  
14/09/2004 08:00:00.4 [SBP01   ] Fix32.thisnode.name9.A_CV set to Po de EP by SC4BP01::BATCH RECIPE                                 
14/09/2004 08:00:00.5 [SBP01   ] Fix32.thisnode.name10.A_CV set to Grafite by SC4BP01::BATCH RECIPE                                 
14/09/2004 08:00:00.5 [SBP01   ] Fix32.thisnode.name11.A_CV set to Ferro by SC4BP01::BATCH RECIPE                                   
14/09/2004 08:00:00.5 [SBP01   ] Fix32.thisnode.name12.A_CV set to Nitrato by SC4BP01::BATCH RECIPE                                 
14/09/2004 08:00:00.6 [SBP01   ] Fix32.thisnode.name14.A_CV set to Selenio by SC4BP01::BATCH RECIPE                                 
14/09/2004 08:00:00.6 [SBP01   ] Fix32.thisnode.name15.A_CV set to Cobalto by SC4BP01::BATCH RECIPE                                 
14/09/2004 08:00:00.6 [SBP01   ] Fix32.thisnode.name16.A_CV set to Ferro by SC4BP01::BATCH RECIPE                                   
14/09/2004 08:00:00.6 [SBP01   ] Fix32.thisnode.name20.A_CV set to Caco by SC4BP01::BATCH RECIPE                                    
14/09/2004 08:00:00.6 [SBP01   ] Fix32.thisnode.name50.A_CV set to  gua by SC4BP01::BATCH RECIPE                                    
14/09/2004 08:00:00.7 [SBP01   ] Fix32.thisnode.name51.A_CV set to Vapor by SC4BP01::BATCH RECIPE                                   
14/09/2004 08:00:00.7 [SBP01   ] Fix32.thisnode.name201.A_CV set to Mst 1 seco by SC4BP01::BATCH RECIPE                             
14/09/2004 08:00:00.7 [SBP01   ] Fix32.thisnode.name202.A_CV set to Mst 2 seco by SC4BP01::BATCH RECIPE                             
14/09/2004 08:00:00.7 [SBP01   ] Fix32.thisnode.name203.A_CV set to Mst 1  mido by SC4BP01::BATCH RECIPE                            
14/09/2004 08:00:00.7 [SBP01   ] Fix32.thisnode.name204.A_CV set to Mst 2  mido by SC4BP01::BATCH RECIPE                            
14/09/2004 08:02:52.4 [SCE01   ] CE_M601_ANM_SAFETY_AREA        CFN             CLOSE      CE M601 SAFETY AREA                     
14/09/2004 08:03:04.0 [SCE01   ] CE_M601_ANM_SAFETY_AREA        CFN             CLOSE      CE M601 SAFETY AREA                     
14/09/2004 08:03:44.4 [SCE01   ] CE_M601_ANM_SAFETY_AREA        OK               OPEN      CE M601 SAFETY AREA                     
14/09/2004 08:03:56.0 [SCE01   ] CE_M601_ANM_SAFETY_AREA        OK               OPEN      CE M601 SAFETY AREA                     
14/09/2004 08:03:59.8 [SBP01   ] Fix32.thisnode.name1.A_CV set to Areia 1 by SC4BP01::BATCH RECIPE                                  
14/09/2004 08:03:59.8 [SBP01   ] Fix32.thisnode.name2.A_CV set to Areia 2 by SC4BP01::BATCH RECIPE                                  
14/09/2004 08:03:59.8 [SBP01   ] Fix32.thisnode.name3.A_CV set to Dolomita by SC4BP01::BATCH RECIPE                                 
14/09/2004 08:03:59.9 [SBP01   ] Fix32.thisnode.name4.A_CV set to Calcario by SC4BP01::BATCH RECIPE                                 
14/09/2004 08:03:59.9 [SBP01   ] Fix32.thisnode.name5.A_CV set to Reserva by SC4BP01::BATCH RECIPE                                  
14/09/2004 08:03:59.9 [SBP01   ] Fix32.thisnode.name6.A_CV set to Barrilha by SC4BP01::BATCH RECIPE                                 
14/09/2004 08:04:00.0 [SBP01   ] Fix32.thisnode.name7.A_CV set to Feldspato by SC4BP01::BATCH RECIPE                                
14/09/2004 08:04:00.0 [SBP01   ] Fix32.thisnode.name8.A_CV set to Sulfato by SC4BP01::BATCH RECIPE                                  
14/09/2004 08:04:00.0 [SBP01   ] Fix32.thisnode.name9.A_CV set to Po de EP by SC4BP01::BATCH RECIPE                                 
14/09/2004 08:04:00.0 [SBP01   ] Fix32.thisnode.name10.A_CV set to Grafite by SC4BP01::BATCH RECIPE                                 
14/09/2004 08:04:00.0 [SBP01   ] Fix32.thisnode.name11.A_CV set to Ferro by SC4BP01::BATCH RECIPE                                   
14/09/2004 08:04:00.0 [SBP01   ] Fix32.thisnode.name12.A_CV set to Nitrato by SC4BP01::BATCH RECIPE                                 
14/09/2004 08:04:00.1 [SBP01   ] Fix32.thisnode.name14.A_CV set to Selenio by SC4BP01::BATCH RECIPE                                 
14/09/2004 08:04:00.1 [SBP01   ] Fix32.thisnode.name15.A_CV set to Cobalto by SC4BP01::BATCH RECIPE                                 
14/09/2004 08:04:00.1 [SBP01   ] Fix32.thisnode.name16.A_CV set to Ferro by SC4BP01::BATCH RECIPE                                   
14/09/2004 08:04:00.1 [SBP01   ] Fix32.thisnode.name20.A_CV set to Caco by SC4BP01::BATCH RECIPE                                    
14/09/2004 08:04:00.1 [SBP01   ] Fix32.thisnode.name50.A_CV set to  gua by SC4BP01::BATCH RECIPE                                    
14/09/2004 08:04:00.1 [SBP01   ] Fix32.thisnode.name51.A_CV set to Vapor by SC4BP01::BATCH RECIPE                                   
14/09/2004 08:04:00.2 [SBP01   ] Fix32.thisnode.name201.A_CV set to Mst 1 seco by SC4BP01::BATCH RECIPE                             
14/09/2004 08:04:00.2 [SBP01   ] Fix32.thisnode.name202.A_CV set to Mst 2 seco by SC4BP01::BATCH RECIPE                             
14/09/2004 08:04:00.2 [SBP01   ] Fix32.thisnode.name203.A_CV set to Mst 1  mido by SC4BP01::BATCH RECIPE                            
14/09/2004 08:04:00.2 [SBP01   ] Fix32.thisnode.name204.A_CV set to Mst 2  mido by SC4BP01::BATCH RECIPE                            
14/09/2004 08:07:31.0 [SCE07   ] EDGE_SYSTEM_AUTO_STRAIN        CFN             ALARM      Stress: Edge Stress Water in Manual     
14/09/2004 08:07:59.8 [SBP01   ] Fix32.thisnode.name1.A_CV set to Areia 1 by SC4BP01::BATCH RECIPE                                  
14/09/2004 08:07:59.8 [SBP01   ] Fix32.thisnode.name2.A_CV set to Areia 2 by SC4BP01::BATCH RECIPE                                  
14/09/2004 08:07:59.9 [SBP01   ] Fix32.thisnode.name3.A_CV set to Dolomita by SC4BP01::BATCH RECIPE                                 
14/09/2004 08:07:59.9 [SBP01   ] Fix32.thisnode.name4.A_CV set to Calcario by SC4BP01::BATCH RECIPE                                 
14/09/2004 08:07:59.9 [SBP01   ] Fix32.thisnode.name5.A_CV set to Reserva by SC4BP01::BATCH RECIPE                                  
14/09/2004 08:07:59.9 [SBP01   ] Fix32.thisnode.name6.A_CV set to Barrilha by SC4BP01::BATCH RECIPE                                 
14/09/2004 08:07:59.9 [SBP01   ] Fix32.thisnode.name7.A_CV set to Feldspato by SC4BP01::BATCH RECIPE                                
14/09/2004 08:08:00.0 [SBP01   ] Fix32.thisnode.name8.A_CV set to Sulfato by SC4BP01::BATCH RECIPE                                  
14/09/2004 08:08:00.0 [SBP01   ] Fix32.thisnode.name9.A_CV set to Po de EP by SC4BP01::BATCH RECIPE                                 
14/09/2004 08:08:00.0 [SBP01   ] Fix32.thisnode.name10.A_CV set to Grafite by SC4BP01::BATCH RECIPE                                 
14/09/2004 08:08:00.0 [SBP01   ] Fix32.thisnode.name11.A_CV set to Ferro by SC4BP01::BATCH RECIPE                                   
14/09/2004 08:08:00.0 [SBP01   ] Fix32.thisnode.name12.A_CV set to Nitrato by SC4BP01::BATCH RECIPE                                 
14/09/2004 08:08:00.0 [SBP01   ] Fix32.thisnode.name14.A_CV set to Selenio by SC4BP01::BATCH RECIPE                                 
14/09/2004 08:08:00.0 [SBP01   ] Fix32.thisnode.name15.A_CV set to Cobalto by SC4BP01::BATCH RECIPE                                 
14/09/2004 08:08:00.1 [SBP01   ] Fix32.thisnode.name16.A_CV set to Ferro by SC4BP01::BATCH RECIPE                                   
14/09/2004 08:08:00.1 [SBP01   ] Fix32.thisnode.name20.A_CV set to Caco by SC4BP01::BATCH RECIPE                                    
14/09/2004 08:08:00.1 [SBP01   ] Fix32.thisnode.name50.A_CV set to  gua by SC4BP01::BATCH RECIPE                                    
14/09/2004 08:08:00.1 [SBP01   ] Fix32.thisnode.name51.A_CV set to Vapor by SC4BP01::BATCH RECIPE                                   
14/09/2004 08:08:00.1 [SBP01   ] Fix32.thisnode.name201.A_CV set to Mst 1 seco by SC4BP01::BATCH RECIPE                             
14/09/2004 08:08:00.1 [SBP01   ] Fix32.thisnode.name202.A_CV set to Mst 2 seco by SC4BP01::BATCH RECIPE                             
14/09/2004 08:08:00.2 [SBP01   ] Fix32.thisnode.name203.A_CV set to Mst 1  mido by SC4BP01::BATCH RECIPE                            
14/09/2004 08:08:00.2 [SBP01   ] Fix32.thisnode.name204.A_CV set to Mst 2  mido by SC4BP01::BATCH RECIPE                            
14/09/2004 08:11:59.8 [SBP01   ] Fix32.thisnode.name1.A_CV set to Areia 1 by SC4BP01::BATCH RECIPE                                  
14/09/2004 08:11:59.8 [SBP01   ] Fix32.thisnode.name2.A_CV set to Areia 2 by SC4BP01::BATCH RECIPE                                  
14/09/2004 08:11:59.9 [SBP01   ] Fix32.thisnode.name3.A_CV set to Dolomita by SC4BP01::BATCH RECIPE                                 
14/09/2004 08:11:59.9 [SBP01   ] Fix32.thisnode.name4.A_CV set to Calcario by SC4BP01::BATCH RECIPE                                 
14/09/2004 08:11:59.9 [SBP01   ] Fix32.thisnode.name5.A_CV set to Reserva by SC4BP01::BATCH RECIPE                                  
14/09/2004 08:12:00.0 [SBP01   ] Fix32.thisnode.name6.A_CV set to Barrilha by SC4BP01::BATCH RECIPE                                 
14/09/2004 08:12:00.0 [SBP01   ] Fix32.thisnode.name7.A_CV set to Feldspato by SC4BP01::BATCH RECIPE                                
14/09/2004 08:12:00.0 [SBP01   ] Fix32.thisnode.name8.A_CV set to Sulfato by SC4BP01::BATCH RECIPE                                  
14/09/2004 08:12:00.0 [SBP01   ] Fix32.thisnode.name9.A_CV set to Po de EP by SC4BP01::BATCH RECIPE                                 
14/09/2004 08:12:00.0 [SBP01   ] Fix32.thisnode.name10.A_CV set to Grafite by SC4BP01::BATCH RECIPE                                 
14/09/2004 08:12:00.1 [SBP01   ] Fix32.thisnode.name11.A_CV set to Ferro by SC4BP01::BATCH RECIPE                                   
14/09/2004 08:12:00.1 [SBP01   ] Fix32.thisnode.name12.A_CV set to Nitrato by SC4BP01::BATCH RECIPE                                 
14/09/2004 08:12:00.1 [SBP01   ] Fix32.thisnode.name14.A_CV set to Selenio by SC4BP01::BATCH RECIPE                                 
14/09/2004 08:12:00.1 [SBP01   ] Fix32.thisnode.name15.A_CV set to Cobalto by SC4BP01::BATCH RECIPE                                 
14/09/2004 08:12:00.1 [SBP01   ] Fix32.thisnode.name16.A_CV set to Ferro by SC4BP01::BATCH RECIPE                                   
14/09/2004 08:12:00.2 [SBP01   ] Fix32.thisnode.name20.A_CV set to Caco by SC4BP01::BATCH RECIPE                                    
14/09/2004 08:12:00.2 [SBP01   ] Fix32.thisnode.name50.A_CV set to  gua by SC4BP01::BATCH RECIPE                                    
14/09/2004 08:12:00.2 [SBP01   ] Fix32.thisnode.name51.A_CV set to Vapor by SC4BP01::BATCH RECIPE                                   
14/09/2004 08:12:00.2 [SBP01   ] Fix32.thisnode.name201.A_CV set to Mst 1 seco by SC4BP01::BATCH RECIPE                             
14/09/2004 08:12:00.2 [SBP01   ] Fix32.thisnode.name202.A_CV set to Mst 2 seco by SC4BP01::BATCH RECIPE                             
14/09/2004 08:12:00.2 [SBP01   ] Fix32.thisnode.name203.A_CV set to Mst 1  mido by SC4BP01::BATCH RECIPE                            
14/09/2004 08:12:00.3 [SBP01   ] Fix32.thisnode.name204.A_CV set to Mst 2  mido by SC4BP01::BATCH RECIPE                            
14/09/2004 08:15:59.8 [SBP01   ] Fix32.thisnode.name1.A_CV set to Areia 1 by SC4BP01::BATCH RECIPE                                  
14/09/2004 08:15:59.8 [SBP01   ] Fix32.thisnode.name2.A_CV set to Areia 2 by SC4BP01::BATCH RECIPE                                  
14/09/2004 08:15:59.8 [SBP01   ] Fix32.thisnode.name3.A_CV set to Dolomita by SC4BP01::BATCH RECIPE                                 
14/09/2004 08:15:59.9 [SBP01   ] Fix32.thisnode.name4.A_CV set to Calcario by SC4BP01::BATCH RECIPE                                 
14/09/2004 08:15:59.9 [SBP01   ] Fix32.thisnode.name5.A_CV set to Reserva by SC4BP01::BATCH RECIPE                                  
14/09/2004 08:15:59.9 [SBP01   ] Fix32.thisnode.name6.A_CV set to Barrilha by SC4BP01::BATCH RECIPE                                 
14/09/2004 08:15:59.9 [SBP01   ] Fix32.thisnode.name7.A_CV set to Feldspato by SC4BP01::BATCH RECIPE                                
14/09/2004 08:15:59.9 [SBP01   ] Fix32.thisnode.name8.A_CV set to Sulfato by SC4BP01::BATCH RECIPE                                  
14/09/2004 08:15:59.9 [SBP01   ] Fix32.thisnode.name9.A_CV set to Po de EP by SC4BP01::BATCH RECIPE                                 
14/09/2004 08:16:00.0 [SBP01   ] Fix32.thisnode.name10.A_CV set to Grafite by SC4BP01::BATCH RECIPE                                 
14/09/2004 08:16:00.0 [SBP01   ] Fix32.thisnode.name11.A_CV set to Ferro by SC4BP01::BATCH RECIPE                                   
14/09/2004 08:16:05.4 [SCE01   ] CE_M705SL2_ANM_B20_INDEX_PACK  CFN             CLOSE      CE M705SL2 B20 INDEX PACK               
14/09/2004 08:16:17.0 [SCE01   ] CE_M705SL2_ANM_B20_INDEX_PACK  CFN             CLOSE      CE M705SL2 B20 INDEX PACK               
14/09/2004 08:16:00.0 [SBP01   ] Fix32.thisnode.name12.A_CV set to Nitrato by SC4BP01::BATCH RECIPE                                 
14/09/2004 08:16:00.0 [SBP01   ] Fix32.thisnode.name14.A_CV set to Selenio by SC4BP01::BATCH RECIPE                                 
14/09/2004 08:16:00.0 [SBP01   ] Fix32.thisnode.name15.A_CV set to Cobalto by SC4BP01::BATCH RECIPE                                 
14/09/2004 08:16:00.1 [SBP01   ] Fix32.thisnode.name16.A_CV set to Ferro by SC4BP01::BATCH RECIPE                                   
14/09/2004 08:16:00.1 [SBP01   ] Fix32.thisnode.name20.A_CV set to Caco by SC4BP01::BATCH RECIPE                                    
14/09/2004 08:16:00.1 [SBP01   ] Fix32.thisnode.name50.A_CV set to  gua by SC4BP01::BATCH RECIPE                                    
14/09/2004 08:16:00.1 [SBP01   ] Fix32.thisnode.name51.A_CV set to Vapor by SC4BP01::BATCH RECIPE                                   
14/09/2004 08:16:00.1 [SBP01   ] Fix32.thisnode.name201.A_CV set to Mst 1 seco by SC4BP01::BATCH RECIPE                             
14/09/2004 08:16:00.2 [SBP01   ] Fix32.thisnode.name202.A_CV set to Mst 2 seco by SC4BP01::BATCH RECIPE                             
14/09/2004 08:16:00.2 [SBP01   ] Fix32.thisnode.name203.A_CV set to Mst 1  mido by SC4BP01::BATCH RECIPE                            
14/09/2004 08:16:00.2 [SBP01   ] Fix32.thisnode.name204.A_CV set to Mst 2  mido by SC4BP01::BATCH RECIPE                            
14/09/2004 08:20:00.3 [SBP01   ] Fix32.thisnode.name1.A_CV set to Areia 1 by SC4BP01::BATCH RECIPE                                  
14/09/2004 08:20:00.3 [SBP01   ] Fix32.thisnode.name2.A_CV set to Areia 2 by SC4BP01::BATCH RECIPE                                  
14/09/2004 08:20:00.3 [SBP01   ] Fix32.thisnode.name3.A_CV set to Dolomita by SC4BP01::BATCH RECIPE                                 
14/09/2004 08:20:00.3 [SBP01   ] Fix32.thisnode.name4.A_CV set to Calcario by SC4BP01::BATCH RECIPE                                 
14/09/2004 08:20:00.3 [SBP01   ] Fix32.thisnode.name5.A_CV set to Reserva by SC4BP01::BATCH RECIPE                                  
14/09/2004 08:20:00.3 [SBP01   ] Fix32.thisnode.name6.A_CV set to Barrilha by SC4BP01::BATCH RECIPE                                 
14/09/2004 08:20:00.4 [SBP01   ] Fix32.thisnode.name7.A_CV set to Feldspato by SC4BP01::BATCH RECIPE                                
14/09/2004 08:20:00.4 [SBP01   ] Fix32.thisnode.name8.A_CV set to Sulfato by SC4BP01::BATCH RECIPE                                  
14/09/2004 08:20:00.4 [SBP01   ] Fix32.thisnode.name9.A_CV set to Po de EP by SC4BP01::BATCH RECIPE                                 
14/09/2004 08:20:00.4 [SBP01   ] Fix32.thisnode.name10.A_CV set to Grafite by SC4BP01::BATCH RECIPE                                 
14/09/2004 08:20:00.5 [SBP01   ] Fix32.thisnode.name11.A_CV set to Ferro by SC4BP01::BATCH RECIPE                                   
14/09/2004 08:20:00.5 [SBP01   ] Fix32.thisnode.name12.A_CV set to Nitrato by SC4BP01::BATCH RECIPE                                 
14/09/2004 08:20:00.5 [SBP01   ] Fix32.thisnode.name14.A_CV set to Selenio by SC4BP01::BATCH RECIPE                                 
14/09/2004 08:20:00.5 [SBP01   ] Fix32.thisnode.name15.A_CV set to Cobalto by SC4BP01::BATCH RECIPE                                 
14/09/2004 08:20:00.5 [SBP01   ] Fix32.thisnode.name16.A_CV set to Ferro by SC4BP01::BATCH RECIPE                                   
14/09/2004 08:20:00.6 [SBP01   ] Fix32.thisnode.name20.A_CV set to Caco by SC4BP01::BATCH RECIPE                                    
14/09/2004 08:20:00.6 [SBP01   ] Fix32.thisnode.name50.A_CV set to  gua by SC4BP01::BATCH RECIPE                                    
14/09/2004 08:20:00.6 [SBP01   ] Fix32.thisnode.name51.A_CV set to Vapor by SC4BP01::BATCH RECIPE                                   
14/09/2004 08:20:00.6 [SBP01   ] Fix32.thisnode.name201.A_CV set to Mst 1 seco by SC4BP01::BATCH RECIPE                             
14/09/2004 08:20:00.7 [SBP01   ] Fix32.thisnode.name202.A_CV set to Mst 2 seco by SC4BP01::BATCH RECIPE                             
14/09/2004 08:20:00.7 [SBP01   ] Fix32.thisnode.name203.A_CV set to Mst 1  mido by SC4BP01::BATCH RECIPE                            
14/09/2004 08:20:00.7 [SBP01   ] Fix32.thisnode.name204.A_CV set to Mst 2  mido by SC4BP01::BATCH RECIPE                            
14/09/2004 08:23:59.8 [SBP01   ] Fix32.thisnode.name1.A_CV set to Areia 1 by SC4BP01::BATCH RECIPE                                  
14/09/2004 08:23:59.9 [SBP01   ] Fix32.thisnode.name2.A_CV set to Areia 2 by SC4BP01::BATCH RECIPE                                  
14/09/2004 08:23:59.9 [SBP01   ] Fix32.thisnode.name3.A_CV set to Dolomita by SC4BP01::BATCH RECIPE                                 
14/09/2004 08:23:59.9 [SBP01   ] Fix32.thisnode.name4.A_CV set to Calcario by SC4BP01::BATCH RECIPE                                 
14/09/2004 08:24:00.0 [SBP01   ] Fix32.thisnode.name5.A_CV set to Reserva by SC4BP01::BATCH RECIPE                                  
14/09/2004 08:24:00.0 [SBP01   ] Fix32.thisnode.name6.A_CV set to Barrilha by SC4BP01::BATCH RECIPE                                 
14/09/2004 08:24:00.0 [SBP01   ] Fix32.thisnode.name7.A_CV set to Feldspato by SC4BP01::BATCH RECIPE                                
14/09/2004 08:24:00.0 [SBP01   ] Fix32.thisnode.name8.A_CV set to Sulfato by SC4BP01::BATCH RECIPE                                  
14/09/2004 08:24:00.0 [SBP01   ] Fix32.thisnode.name9.A_CV set to Po de EP by SC4BP01::BATCH RECIPE                                 
14/09/2004 08:24:00.1 [SBP01   ] Fix32.thisnode.name10.A_CV set to Grafite by SC4BP01::BATCH RECIPE                                 
14/09/2004 08:24:00.1 [SBP01   ] Fix32.thisnode.name11.A_CV set to Ferro by SC4BP01::BATCH RECIPE                                   
14/09/2004 08:24:00.1 [SBP01   ] Fix32.thisnode.name12.A_CV set to Nitrato by SC4BP01::BATCH RECIPE                                 
14/09/2004 08:24:00.1 [SBP01   ] Fix32.thisnode.name14.A_CV set to Selenio by SC4BP01::BATCH RECIPE                                 
14/09/2004 08:24:00.1 [SBP01   ] Fix32.thisnode.name15.A_CV set to Cobalto by SC4BP01::BATCH RECIPE                                 
14/09/2004 08:24:00.1 [SBP01   ] Fix32.thisnode.name16.A_CV set to Ferro by SC4BP01::BATCH RECIPE                                   
14/09/2004 08:24:00.2 [SBP01   ] Fix32.thisnode.name20.A_CV set to Caco by SC4BP01::BATCH RECIPE                                    
14/09/2004 08:24:00.2 [SBP01   ] Fix32.thisnode.name50.A_CV set to  gua by SC4BP01::BATCH RECIPE                                    
14/09/2004 08:24:00.2 [SBP01   ] Fix32.thisnode.name51.A_CV set to Vapor by SC4BP01::BATCH RECIPE                                   
14/09/2004 08:24:00.2 [SBP01   ] Fix32.thisnode.name201.A_CV set to Mst 1 seco by SC4BP01::BATCH RECIPE                             
14/09/2004 08:24:00.2 [SBP01   ] Fix32.thisnode.name202.A_CV set to Mst 2 seco by SC4BP01::BATCH RECIPE                             
14/09/2004 08:24:00.2 [SBP01   ] Fix32.thisnode.name203.A_CV set to Mst 1  mido by SC4BP01::BATCH RECIPE                            
14/09/2004 08:24:00.3 [SBP01   ] Fix32.thisnode.name204.A_CV set to Mst 2  mido by SC4BP01::BATCH RECIPE                            
14/09/2004 08:27:59.8 [SBP01   ] Fix32.thisnode.name1.A_CV set to Areia 1 by SC4BP01::BATCH RECIPE                                  
14/09/2004 08:27:59.8 [SBP01   ] Fix32.thisnode.name2.A_CV set to Areia 2 by SC4BP01::BATCH RECIPE                                  
14/09/2004 08:27:59.8 [SBP01   ] Fix32.thisnode.name3.A_CV set to Dolomita by SC4BP01::BATCH RECIPE                                 
14/09/2004 08:27:59.9 [SBP01   ] Fix32.thisnode.name4.A_CV set to Calcario by SC4BP01::BATCH RECIPE                                 
14/09/2004 08:27:59.9 [SBP01   ] Fix32.thisnode.name5.A_CV set to Reserva by SC4BP01::BATCH RECIPE                                  
14/09/2004 08:27:59.9 [SBP01   ] Fix32.thisnode.name6.A_CV set to Barrilha by SC4BP01::BATCH RECIPE                                 
14/09/2004 08:27:59.9 [SBP01   ] Fix32.thisnode.name7.A_CV set to Feldspato by SC4BP01::BATCH RECIPE                                
14/09/2004 08:27:59.9 [SBP01   ] Fix32.thisnode.name8.A_CV set to Sulfato by SC4BP01::BATCH RECIPE                                  
14/09/2004 08:28:00.0 [SBP01   ] Fix32.thisnode.name9.A_CV set to Po de EP by SC4BP01::BATCH RECIPE                                 
14/09/2004 08:28:00.0 [SBP01   ] Fix32.thisnode.name10.A_CV set to Grafite by SC4BP01::BATCH RECIPE                                 
14/09/2004 08:28:00.0 [SBP01   ] Fix32.thisnode.name11.A_CV set to Ferro by SC4BP01::BATCH RECIPE                                   
14/09/2004 08:28:00.0 [SBP01   ] Fix32.thisnode.name12.A_CV set to Nitrato by SC4BP01::BATCH RECIPE                                 
14/09/2004 08:28:00.1 [SBP01   ] Fix32.thisnode.name14.A_CV set to Selenio by SC4BP01::BATCH RECIPE                                 
14/09/2004 08:28:00.1 [SBP01   ] Fix32.thisnode.name15.A_CV set to Cobalto by SC4BP01::BATCH RECIPE                                 
14/09/2004 08:28:00.2 [SBP01   ] Fix32.thisnode.name16.A_CV set to Ferro by SC4BP01::BATCH RECIPE                                   
14/09/2004 08:28:00.2 [SBP01   ] Fix32.thisnode.name20.A_CV set to Caco by SC4BP01::BATCH RECIPE                                    
14/09/2004 08:28:00.2 [SBP01   ] Fix32.thisnode.name50.A_CV set to  gua by SC4BP01::BATCH RECIPE                                    
14/09/2004 08:28:00.2 [SBP01   ] Fix32.thisnode.name51.A_CV set to Vapor by SC4BP01::BATCH RECIPE                                   
14/09/2004 08:28:00.2 [SBP01   ] Fix32.thisnode.name201.A_CV set to Mst 1 seco by SC4BP01::BATCH RECIPE                             
14/09/2004 08:28:00.2 [SBP01   ] Fix32.thisnode.name202.A_CV set to Mst 2 seco by SC4BP01::BATCH RECIPE                             
14/09/2004 08:28:00.3 [SBP01   ] Fix32.thisnode.name203.A_CV set to Mst 1  mido by SC4BP01::BATCH RECIPE                            
14/09/2004 08:28:00.3 [SBP01   ] Fix32.thisnode.name204.A_CV set to Mst 2  mido by SC4BP01::BATCH RECIPE                            
14/09/2004 08:31:59.8 [SBP01   ] Fix32.thisnode.name1.A_CV set to Areia 1 by SC4BP01::BATCH RECIPE                                  
14/09/2004 08:31:59.8 [SBP01   ] Fix32.thisnode.name2.A_CV set to Areia 2 by SC4BP01::BATCH RECIPE                                  
14/09/2004 08:31:59.8 [SBP01   ] Fix32.thisnode.name3.A_CV set to Dolomita by SC4BP01::BATCH RECIPE                                 
14/09/2004 08:31:59.9 [SBP01   ] Fix32.thisnode.name4.A_CV set to Calcario by SC4BP01::BATCH RECIPE                                 
14/09/2004 08:31:59.9 [SBP01   ] Fix32.thisnode.name5.A_CV set to Reserva by SC4BP01::BATCH RECIPE                                  
14/09/2004 08:31:59.9 [SBP01   ] Fix32.thisnode.name6.A_CV set to Barrilha by SC4BP01::BATCH RECIPE                                 
14/09/2004 08:31:59.9 [SBP01   ] Fix32.thisnode.name7.A_CV set to Feldspato by SC4BP01::BATCH RECIPE                                
14/09/2004 08:31:59.9 [SBP01   ] Fix32.thisnode.name8.A_CV set to Sulfato by SC4BP01::BATCH RECIPE                                  
14/09/2004 08:31:59.9 [SBP01   ] Fix32.thisnode.name9.A_CV set to Po de EP by SC4BP01::BATCH RECIPE                                 
14/09/2004 08:31:59.9 [SBP01   ] Fix32.thisnode.name10.A_CV set to Grafite by SC4BP01::BATCH RECIPE                                 
14/09/2004 08:31:59.9 [SBP01   ] Fix32.thisnode.name11.A_CV set to Ferro by SC4BP01::BATCH RECIPE                                   
14/09/2004 08:32:00.0 [SBP01   ] Fix32.thisnode.name12.A_CV set to Nitrato by SC4BP01::BATCH RECIPE                                 
14/09/2004 08:32:00.0 [SBP01   ] Fix32.thisnode.name14.A_CV set to Selenio by SC4BP01::BATCH RECIPE                                 
14/09/2004 08:32:00.0 [SBP01   ] Fix32.thisnode.name15.A_CV set to Cobalto by SC4BP01::BATCH RECIPE                                 
14/09/2004 08:32:00.0 [SBP01   ] Fix32.thisnode.name16.A_CV set to Ferro by SC4BP01::BATCH RECIPE                                   
14/09/2004 08:32:00.0 [SBP01   ] Fix32.thisnode.name20.A_CV set to Caco by SC4BP01::BATCH RECIPE                                    
14/09/2004 08:32:00.0 [SBP01   ] Fix32.thisnode.name50.A_CV set to  gua by SC4BP01::BATCH RECIPE                                    
14/09/2004 08:32:00.0 [SBP01   ] Fix32.thisnode.name51.A_CV set to Vapor by SC4BP01::BATCH RECIPE                                   
14/09/2004 08:32:00.1 [SBP01   ] Fix32.thisnode.name201.A_CV set to Mst 1 seco by SC4BP01::BATCH RECIPE                             
14/09/2004 08:32:00.1 [SBP01   ] Fix32.thisnode.name202.A_CV set to Mst 2 seco by SC4BP01::BATCH RECIPE                             
14/09/2004 08:32:00.1 [SBP01   ] Fix32.thisnode.name203.A_CV set to Mst 1  mido by SC4BP01::BATCH RECIPE                            
14/09/2004 08:32:00.1 [SBP01   ] Fix32.thisnode.name204.A_CV set to Mst 2  mido by SC4BP01::BATCH RECIPE                            
14/09/2004 08:35:59.8 [SBP01   ] Fix32.thisnode.name1.A_CV set to Areia 1 by SC4BP01::BATCH RECIPE                                  
14/09/2004 08:35:59.8 [SBP01   ] Fix32.thisnode.name2.A_CV set to Areia 2 by SC4BP01::BATCH RECIPE                                  
14/09/2004 08:35:59.9 [SBP01   ] Fix32.thisnode.name3.A_CV set to Dolomita by SC4BP01::BATCH RECIPE                                 
14/09/2004 08:35:59.9 [SBP01   ] Fix32.thisnode.name4.A_CV set to Calcario by SC4BP01::BATCH RECIPE                                 
14/09/2004 08:35:59.9 [SBP01   ] Fix32.thisnode.name5.A_CV set to Reserva by SC4BP01::BATCH RECIPE                                  
14/09/2004 08:35:59.9 [SBP01   ] Fix32.thisnode.name6.A_CV set to Barrilha by SC4BP01::BATCH RECIPE                                 
14/09/2004 08:35:59.9 [SBP01   ] Fix32.thisnode.name7.A_CV set to Feldspato by SC4BP01::BATCH RECIPE                                
14/09/2004 08:35:59.9 [SBP01   ] Fix32.thisnode.name8.A_CV set to Sulfato by SC4BP01::BATCH RECIPE                                  
14/09/2004 08:35:59.9 [SBP01   ] Fix32.thisnode.name9.A_CV set to Po de EP by SC4BP01::BATCH RECIPE                                 
14/09/2004 08:35:59.9 [SBP01   ] Fix32.thisnode.name10.A_CV set to Grafite by SC4BP01::BATCH RECIPE                                 
14/09/2004 08:36:00.0 [SBP01   ] Fix32.thisnode.name11.A_CV set to Ferro by SC4BP01::BATCH RECIPE                                   
14/09/2004 08:36:00.0 [SBP01   ] Fix32.thisnode.name12.A_CV set to Nitrato by SC4BP01::BATCH RECIPE                                 
14/09/2004 08:36:00.0 [SBP01   ] Fix32.thisnode.name14.A_CV set to Selenio by SC4BP01::BATCH RECIPE                                 
14/09/2004 08:36:00.0 [SBP01   ] Fix32.thisnode.name15.A_CV set to Cobalto by SC4BP01::BATCH RECIPE                                 
14/09/2004 08:36:00.0 [SBP01   ] Fix32.thisnode.name16.A_CV set to Ferro by SC4BP01::BATCH RECIPE                                   
14/09/2004 08:36:00.0 [SBP01   ] Fix32.thisnode.name20.A_CV set to Caco by SC4BP01::BATCH RECIPE                                    
14/09/2004 08:36:00.1 [SBP01   ] Fix32.thisnode.name50.A_CV set to  gua by SC4BP01::BATCH RECIPE                                    
14/09/2004 08:36:00.1 [SBP01   ] Fix32.thisnode.name51.A_CV set to Vapor by SC4BP01::BATCH RECIPE                                   
14/09/2004 08:36:00.1 [SBP01   ] Fix32.thisnode.name201.A_CV set to Mst 1 seco by SC4BP01::BATCH RECIPE                             
14/09/2004 08:36:00.1 [SBP01   ] Fix32.thisnode.name202.A_CV set to Mst 2 seco by SC4BP01::BATCH RECIPE                             
14/09/2004 08:36:00.2 [SBP01   ] Fix32.thisnode.name203.A_CV set to Mst 1  mido by SC4BP01::BATCH RECIPE                            
14/09/2004 08:36:00.2 [SBP01   ] Fix32.thisnode.name204.A_CV set to Mst 2  mido by SC4BP01::BATCH RECIPE                            
14/09/2004 08:36:03.7 [SBP01   ] RH1_M1_ALARM_02 ALARM is acknowledged by SC4BP01::BATCH RECIPE                                     
14/09/2004 08:36:03.7 [SBP01   ] RH1_M1_ALARM_02 ALARM is acknowledged by SC4BP01::BATCH RECIPE                                     
14/09/2004 08:36:05.9 [SBP01   ] RH1_M1_ALARM_WORD ALARM is acknowledged by SC4BP01::BATCH RECIPE                                   
14/09/2004 08:36:06.0 [SBP01   ] RH1_M1_ALARM_WORD ALARM is acknowledged by SC4BP01::BATCH RECIPE                                   
14/09/2004 08:36:07.5 [SBP01   ] FURNACE_HOPPER_ALARM_WORD ALARM is acknowledged by SC4BP01::BATCH RECIPE                           
14/09/2004 08:36:07.6 [SBP01   ] FURNACE_HOPPER_ALARM_WORD ALARM is acknowledged by SC4BP01::BATCH RECIPE                           
14/09/2004 08:37:00.8 [SCE01   ] CE_M705SL2_ANM_B20_INDEX_PACK ALARM is acknowledged by WC4CE01::COLD END OPERATOR                  
14/09/2004 08:37:01.0 [SCE01   ] CE_M705SL2_ANM_B20_INDEX_PACK ALARM is acknowledged by WC4CE01::COLD END OPERATOR                  
14/09/2004 08:37:02.3 [SCE01   ] CE_M601_ANM_SAFETY_AREA ALARM is acknowledged by WC4CE01::COLD END OPERATOR                        
14/09/2004 08:37:02.5 [SCE01   ] CE_M601_ANM_SAFETY_AREA ALARM is acknowledged by WC4CE01::COLD END OPERATOR                        
14/09/2004 08:37:04.2 [SCE01   ] CE_M347_ANM_SAFETY_AREA ALARM is acknowledged by WC4CE01::COLD END OPERATOR                        
14/09/2004 08:37:04.3 [SCE01   ] CE_M347_ANM_SAFETY_AREA ALARM is acknowledged by WC4CE01::COLD END OPERATOR                        
14/09/2004 08:37:06.3 [SCE01   ] CE_M504_ANM_SAFETY_AREA ALARM is acknowledged by WC4CE01::COLD END OPERATOR                        
14/09/2004 08:37:06.5 [SCE01   ] CE_M504_ANM_SAFETY_AREA ALARM is acknowledged by WC4CE01::COLD END OPERATOR                        
14/09/2004 08:37:08.0 [SCE01   ] CE_M501_ANM_SAFETY_AREA ALARM is acknowledged by WC4CE01::COLD END OPERATOR                        
14/09/2004 08:37:08.2 [SCE01   ] CE_M501_ANM_SAFETY_AREA ALARM is acknowledged by WC4CE01::COLD END OPERATOR                        
14/09/2004 08:38:53.4 [SCE01   ] CE_M705SL2_ANM_B20_INDEX_PACK  OK               OPEN      CE M705SL2 B20 INDEX PACK               
14/09/2004 08:39:06.0 [SCE01   ] CE_M705SL2_ANM_B20_INDEX_PACK  OK               OPEN      CE M705SL2 B20 INDEX PACK               
14/09/2004 08:39:12.9 [SBP01   ] Fix32.sbp01.alltime1.f_cv set to 1 by SC4BP01::BATCH RECIPE                                        
14/09/2004 08:40:00.2 [SBP01   ] Fix32.thisnode.name1.A_CV set to Areia 1 by SC4BP01::BATCH RECIPE                                  
14/09/2004 08:40:00.3 [SBP01   ] Fix32.thisnode.name2.A_CV set to Areia 2 by SC4BP01::BATCH RECIPE                                  
14/09/2004 08:40:00.3 [SBP01   ] Fix32.thisnode.name3.A_CV set to Dolomita by SC4BP01::BATCH RECIPE                                 
14/09/2004 08:40:00.3 [SBP01   ] Fix32.thisnode.name4.A_CV set to Calcario by SC4BP01::BATCH RECIPE                                 
14/09/2004 08:40:00.3 [SBP01   ] Fix32.thisnode.name5.A_CV set to Reserva by SC4BP01::BATCH RECIPE                                  
14/09/2004 08:40:00.3 [SBP01   ] Fix32.thisnode.name6.A_CV set to Barrilha by SC4BP01::BATCH RECIPE                                 
14/09/2004 08:40:00.4 [SBP01   ] Fix32.thisnode.name7.A_CV set to Feldspato by SC4BP01::BATCH RECIPE                                
14/09/2004 08:40:00.4 [SBP01   ] Fix32.thisnode.name8.A_CV set to Sulfato by SC4BP01::BATCH RECIPE                                  
14/09/2004 08:40:00.4 [SBP01   ] Fix32.thisnode.name9.A_CV set to Po de EP by SC4BP01::BATCH RECIPE                                 
14/09/2004 08:40:00.4 [SBP01   ] Fix32.thisnode.name10.A_CV set to Grafite by SC4BP01::BATCH RECIPE                                 
14/09/2004 08:40:00.4 [SBP01   ] Fix32.thisnode.name11.A_CV set to Ferro by SC4BP01::BATCH RECIPE                                   
14/09/2004 08:40:00.4 [SBP01   ] Fix32.thisnode.name12.A_CV set to Nitrato by SC4BP01::BATCH RECIPE                                 
14/09/2004 08:40:00.5 [SBP01   ] Fix32.thisnode.name14.A_CV set to Selenio by SC4BP01::BATCH RECIPE                                 
14/09/2004 08:40:00.5 [SBP01   ] Fix32.thisnode.name15.A_CV set to Cobalto by SC4BP01::BATCH RECIPE                                 
14/09/2004 08:40:00.5 [SBP01   ] Fix32.thisnode.name16.A_CV set to Ferro by SC4BP01::BATCH RECIPE                                   
14/09/2004 08:40:00.5 [SBP01   ] Fix32.thisnode.name20.A_CV set to Caco by SC4BP01::BATCH RECIPE                                    
14/09/2004 08:40:00.6 [SBP01   ] Fix32.thisnode.name50.A_CV set to  gua by SC4BP01::BATCH RECIPE                                    
14/09/2004 08:40:00.6 [SBP01   ] Fix32.thisnode.name51.A_CV set to Vapor by SC4BP01::BATCH RECIPE                                   
14/09/2004 08:40:00.6 [SBP01   ] Fix32.thisnode.name201.A_CV set to Mst 1 seco by SC4BP01::BATCH RECIPE                             
14/09/2004 08:40:00.6 [SBP01   ] Fix32.thisnode.name202.A_CV set to Mst 2 seco by SC4BP01::BATCH RECIPE                             
14/09/2004 08:40:00.6 [SBP01   ] Fix32.thisnode.name203.A_CV set to Mst 1  mido by SC4BP01::BATCH RECIPE                            
14/09/2004 08:40:00.6 [SBP01   ] Fix32.thisnode.name204.A_CV set to Mst 2  mido by SC4BP01::BATCH RECIPE                            
14/09/2004 08:40:14.2 SC4BP01 SECURITY VIOLATION: BATCH RECIPE access to APPLICATION FEATURE System User Login                      
14/09/2004 08:42:05.0 [SCE01   ] CE_M601_ANM_SAFETY_AREA        CFN             CLOSE      CE M601 SAFETY AREA                     
14/09/2004 08:41:49.6 [SCE01   ] CE_M601_ANM_SAFETY_AREA        CFN             CLOSE      CE M601 SAFETY AREA                     
14/09/2004 08:43:03.0 [SCE01   ] CE_M601_ANM_SAFETY_AREA        OK               OPEN      CE M601 SAFETY AREA                     
14/09/2004 08:42:48.5 [SCE01   ] CE_M601_ANM_SAFETY_AREA        OK               OPEN      CE M601 SAFETY AREA                     
14/09/2004 08:43:59.8 [SBP01   ] Fix32.thisnode.name1.A_CV set to Areia 1 by SC4BP01::BATCH RECIPE                                  
14/09/2004 08:43:59.8 [SBP01   ] Fix32.thisnode.name2.A_CV set to Areia 2 by SC4BP01::BATCH RECIPE                                  
14/09/2004 08:43:59.9 [SBP01   ] Fix32.thisnode.name3.A_CV set to Dolomita by SC4BP01::BATCH RECIPE                                 
14/09/2004 08:43:59.9 [SBP01   ] Fix32.thisnode.name4.A_CV set to Calcario by SC4BP01::BATCH RECIPE                                 
14/09/2004 08:43:59.9 [SBP01   ] Fix32.thisnode.name5.A_CV set to Reserva by SC4BP01::BATCH RECIPE                                  
14/09/2004 08:43:59.9 [SBP01   ] Fix32.thisnode.name6.A_CV set to Barrilha by SC4BP01::BATCH RECIPE                                 
14/09/2004 08:44:00.0 [SBP01   ] Fix32.thisnode.name7.A_CV set to Feldspato by SC4BP01::BATCH RECIPE                                
14/09/2004 08:44:00.0 [SBP01   ] Fix32.thisnode.name8.A_CV set to Sulfato by SC4BP01::BATCH RECIPE                                  
14/09/2004 08:44:00.0 [SBP01   ] Fix32.thisnode.name9.A_CV set to Po de EP by SC4BP01::BATCH RECIPE                                 
14/09/2004 08:44:00.0 [SBP01   ] Fix32.thisnode.name10.A_CV set to Grafite by SC4BP01::BATCH RECIPE                                 
14/09/2004 08:44:00.0 [SBP01   ] Fix32.thisnode.name11.A_CV set to Ferro by SC4BP01::BATCH RECIPE                                   
14/09/2004 08:44:00.1 [SBP01   ] Fix32.thisnode.name12.A_CV set to Nitrato by SC4BP01::BATCH RECIPE                                 
14/09/2004 08:44:00.1 [SBP01   ] Fix32.thisnode.name14.A_CV set to Selenio by SC4BP01::BATCH RECIPE                                 
14/09/2004 08:44:00.1 [SBP01   ] Fix32.thisnode.name15.A_CV set to Cobalto by SC4BP01::BATCH RECIPE                                 
14/09/2004 08:44:00.1 [SBP01   ] Fix32.thisnode.name16.A_CV set to Ferro by SC4BP01::BATCH RECIPE                                   
14/09/2004 08:44:00.1 [SBP01   ] Fix32.thisnode.name20.A_CV set to Caco by SC4BP01::BATCH RECIPE                                    
14/09/2004 08:44:00.1 [SBP01   ] Fix32.thisnode.name50.A_CV set to  gua by SC4BP01::BATCH RECIPE                                    
14/09/2004 08:44:00.2 [SBP01   ] Fix32.thisnode.name51.A_CV set to Vapor by SC4BP01::BATCH RECIPE                                   
14/09/2004 08:44:00.2 [SBP01   ] Fix32.thisnode.name201.A_CV set to Mst 1 seco by SC4BP01::BATCH RECIPE                             
14/09/2004 08:44:00.2 [SBP01   ] Fix32.thisnode.name202.A_CV set to Mst 2 seco by SC4BP01::BATCH RECIPE                             
14/09/2004 08:44:00.2 [SBP01   ] Fix32.thisnode.name203.A_CV set to Mst 1  mido by SC4BP01::BATCH RECIPE                            
14/09/2004 08:44:00.2 [SBP01   ] Fix32.thisnode.name204.A_CV set to Mst 2  mido by SC4BP01::BATCH RECIPE                            
14/09/2004 08:45:59.7 SC4BP01 SECURITY VIOLATION: HOT END OPERATOR access to SECURITY AREA A                                        
14/09/2004 08:47:17.7 [SBP01   ] Fix32.sbp01.alltime1.f_cv set to 1 by WC4BP01::BATCH PLANT OPERATOR                                
14/09/2004 08:47:59.8 [SBP01   ] Fix32.thisnode.name1.A_CV set to Areia 1 by SC4BP01::BATCH RECIPE                                  
14/09/2004 08:47:59.8 [SBP01   ] Fix32.thisnode.name2.A_CV set to Areia 2 by SC4BP01::BATCH RECIPE                                  
14/09/2004 08:47:59.8 [SBP01   ] Fix32.thisnode.name3.A_CV set to Dolomita by SC4BP01::BATCH RECIPE                                 
14/09/2004 08:47:59.8 [SBP01   ] Fix32.thisnode.name4.A_CV set to Calcario by SC4BP01::BATCH RECIPE                                 
14/09/2004 08:47:59.9 [SBP01   ] Fix32.thisnode.name5.A_CV set to Reserva by SC4BP01::BATCH RECIPE                                  
14/09/2004 08:47:59.9 [SBP01   ] Fix32.thisnode.name6.A_CV set to Barrilha by SC4BP01::BATCH RECIPE                                 
14/09/2004 08:47:59.9 [SBP01   ] Fix32.thisnode.name7.A_CV set to Feldspato by SC4BP01::BATCH RECIPE                                
14/09/2004 08:47:59.9 [SBP01   ] Fix32.thisnode.name8.A_CV set to Sulfato by SC4BP01::BATCH RECIPE                                  
14/09/2004 08:47:59.9 [SBP01   ] Fix32.thisnode.name9.A_CV set to Po de EP by SC4BP01::BATCH RECIPE                                 
14/09/2004 08:48:00.0 [SBP01   ] Fix32.thisnode.name10.A_CV set to Grafite by SC4BP01::BATCH RECIPE                                 
14/09/2004 08:48:00.0 [SBP01   ] Fix32.thisnode.name11.A_CV set to Ferro by SC4BP01::BATCH RECIPE                                   
14/09/2004 08:48:00.0 [SBP01   ] Fix32.thisnode.name12.A_CV set to Nitrato by SC4BP01::BATCH RECIPE                                 
14/09/2004 08:48:00.0 [SBP01   ] Fix32.thisnode.name14.A_CV set to Selenio by SC4BP01::BATCH RECIPE                                 
14/09/2004 08:48:00.0 [SBP01   ] Fix32.thisnode.name15.A_CV set to Cobalto by SC4BP01::BATCH RECIPE                                 
14/09/2004 08:48:00.0 [SBP01   ] Fix32.thisnode.name16.A_CV set to Ferro by SC4BP01::BATCH RECIPE                                   
14/09/2004 08:48:00.1 [SBP01   ] Fix32.thisnode.name20.A_CV set to Caco by SC4BP01::BATCH RECIPE                                    
14/09/2004 08:48:00.1 [SBP01   ] Fix32.thisnode.name50.A_CV set to  gua by SC4BP01::BATCH RECIPE                                    
14/09/2004 08:48:00.1 [SBP01   ] Fix32.thisnode.name51.A_CV set to Vapor by SC4BP01::BATCH RECIPE                                   
14/09/2004 08:48:00.1 [SBP01   ] Fix32.thisnode.name201.A_CV set to Mst 1 seco by SC4BP01::BATCH RECIPE                             
14/09/2004 08:48:00.1 [SBP01   ] Fix32.thisnode.name202.A_CV set to Mst 2 seco by SC4BP01::BATCH RECIPE                             
14/09/2004 08:48:00.1 [SBP01   ] Fix32.thisnode.name203.A_CV set to Mst 1  mido by SC4BP01::BATCH RECIPE                            
14/09/2004 08:48:00.1 [SBP01   ] Fix32.thisnode.name204.A_CV set to Mst 2  mido by SC4BP01::BATCH RECIPE                            
14/09/2004 08:50:17.7 [SCE01   ] Fix32.SCE01.PAT08_LIN_ENAB.F_CV set to 0 by WC4CE01::COLD END OPERATOR                             
14/09/2004 08:50:24.2 [SCE01   ] Fix32.SCE01.PAT07_NREQ.F_CV set to 230 by WC4CE01::COLD END OPERATOR                               
14/09/2004 08:51:59.8 [SBP01   ] Fix32.thisnode.name1.A_CV set to Areia 1 by SC4BP01::BATCH RECIPE                                  
14/09/2004 08:51:59.8 [SBP01   ] Fix32.thisnode.name2.A_CV set to Areia 2 by SC4BP01::BATCH RECIPE                                  
14/09/2004 08:51:59.8 [SBP01   ] Fix32.thisnode.name3.A_CV set to Dolomita by SC4BP01::BATCH RECIPE                                 
14/09/2004 08:51:59.8 [SBP01   ] Fix32.thisnode.name4.A_CV set to Calcario by SC4BP01::BATCH RECIPE                                 
14/09/2004 08:51:59.9 [SBP01   ] Fix32.thisnode.name5.A_CV set to Reserva by SC4BP01::BATCH RECIPE                                  
14/09/2004 08:51:59.9 [SBP01   ] Fix32.thisnode.name6.A_CV set to Barrilha by SC4BP01::BATCH RECIPE                                 
14/09/2004 08:51:59.9 [SBP01   ] Fix32.thisnode.name7.A_CV set to Feldspato by SC4BP01::BATCH RECIPE                                
14/09/2004 08:51:59.9 [SBP01   ] Fix32.thisnode.name8.A_CV set to Sulfato by SC4BP01::BATCH RECIPE                                  
14/09/2004 08:51:59.9 [SBP01   ] Fix32.thisnode.name9.A_CV set to Po de EP by SC4BP01::BATCH RECIPE                                 
14/09/2004 08:51:59.9 [SBP01   ] Fix32.thisnode.name10.A_CV set to Grafite by SC4BP01::BATCH RECIPE                                 
14/09/2004 08:52:00.0 [SBP01   ] Fix32.thisnode.name11.A_CV set to Ferro by SC4BP01::BATCH RECIPE                                   
14/09/2004 08:52:00.0 [SBP01   ] Fix32.thisnode.name12.A_CV set to Nitrato by SC4BP01::BATCH RECIPE                                 
14/09/2004 08:52:00.0 [SBP01   ] Fix32.thisnode.name14.A_CV set to Selenio by SC4BP01::BATCH RECIPE                                 
14/09/2004 08:52:00.1 [SBP01   ] Fix32.thisnode.name15.A_CV set to Cobalto by SC4BP01::BATCH RECIPE                                 
14/09/2004 08:52:00.1 [SBP01   ] Fix32.thisnode.name16.A_CV set to Ferro by SC4BP01::BATCH RECIPE                                   
14/09/2004 08:52:00.1 [SBP01   ] Fix32.thisnode.name20.A_CV set to Caco by SC4BP01::BATCH RECIPE                                    
14/09/2004 08:52:00.1 [SBP01   ] Fix32.thisnode.name50.A_CV set to  gua by SC4BP01::BATCH RECIPE                                    
14/09/2004 08:52:00.2 [SBP01   ] Fix32.thisnode.name51.A_CV set to Vapor by SC4BP01::BATCH RECIPE                                   
14/09/2004 08:52:00.2 [SBP01   ] Fix32.thisnode.name201.A_CV set to Mst 1 seco by SC4BP01::BATCH RECIPE                             
14/09/2004 08:52:00.3 [SBP01   ] Fix32.thisnode.name202.A_CV set to Mst 2 seco by SC4BP01::BATCH RECIPE                             
14/09/2004 08:52:00.3 [SBP01   ] Fix32.thisnode.name203.A_CV set to Mst 1  mido by SC4BP01::BATCH RECIPE                            
14/09/2004 08:52:00.3 [SBP01   ] Fix32.thisnode.name204.A_CV set to Mst 2  mido by SC4BP01::BATCH RECIPE                            
14/09/2004 08:54:02.4 [SCE01   ] Fix32.SCE01.PAT08_LIN_ENAB.F_CV set to 1 by WC4CE01::COLD END OPERATOR                             
14/09/2004 08:54:16.0 [SCE01   ] Fix32.SCE01.PAT08_LIN_ENAB.F_CV set to 0 by WC4CE01::COLD END OPERATOR                             
14/09/2004 08:55:30.0 [SCE01   ] Fix32.SCE01.PAT15_FECR_L.F_CV set to 1 by WC4CE02::COLD END OPERATOR                               
14/09/2004 08:55:30.5 [SCE01   ] Fix32.SCE01.PAT15_FECR_R.F_CV set to 1 by WC4CE02::COLD END OPERATOR                               
14/09/2004 08:55:33.5 [SCE01   ] Fix32.SCE01.PAT15_RASP.F_CV set to 1 by WC4CE02::COLD END OPERATOR                                 
14/09/2004 08:55:59.8 [SBP01   ] Fix32.thisnode.name1.A_CV set to Areia 1 by SC4BP01::BATCH RECIPE                                  
14/09/2004 08:55:59.8 [SBP01   ] Fix32.thisnode.name2.A_CV set to Areia 2 by SC4BP01::BATCH RECIPE                                  
14/09/2004 08:55:59.8 [SBP01   ] Fix32.thisnode.name3.A_CV set to Dolomita by SC4BP01::BATCH RECIPE                                 
14/09/2004 08:55:59.9 [SBP01   ] Fix32.thisnode.name4.A_CV set to Calcario by SC4BP01::BATCH RECIPE                                 
14/09/2004 08:55:59.9 [SBP01   ] Fix32.thisnode.name5.A_CV set to Reserva by SC4BP01::BATCH RECIPE                                  
14/09/2004 08:55:59.9 [SBP01   ] Fix32.thisnode.name6.A_CV set to Barrilha by SC4BP01::BATCH RECIPE                                 
14/09/2004 08:55:59.9 [SBP01   ] Fix32.thisnode.name7.A_CV set to Feldspato by SC4BP01::BATCH RECIPE                                
14/09/2004 08:56:00.0 [SBP01   ] Fix32.thisnode.name8.A_CV set to Sulfato by SC4BP01::BATCH RECIPE                                  
14/09/2004 08:56:00.0 [SBP01   ] Fix32.thisnode.name9.A_CV set to Po de EP by SC4BP01::BATCH RECIPE                                 
14/09/2004 08:56:00.0 [SBP01   ] Fix32.thisnode.name10.A_CV set to Grafite by SC4BP01::BATCH RECIPE                                 
14/09/2004 08:56:00.0 [SBP01   ] Fix32.thisnode.name11.A_CV set to Ferro by SC4BP01::BATCH RECIPE                                   
14/09/2004 08:56:00.1 [SBP01   ] Fix32.thisnode.name12.A_CV set to Nitrato by SC4BP01::BATCH RECIPE                                 
14/09/2004 08:56:00.1 [SBP01   ] Fix32.thisnode.name14.A_CV set to Selenio by SC4BP01::BATCH RECIPE                                 
14/09/2004 08:56:00.1 [SBP01   ] Fix32.thisnode.name15.A_CV set to Cobalto by SC4BP01::BATCH RECIPE                                 
14/09/2004 08:56:00.1 [SBP01   ] Fix32.thisnode.name16.A_CV set to Ferro by SC4BP01::BATCH RECIPE                                   
14/09/2004 08:56:00.2 [SBP01   ] Fix32.thisnode.name20.A_CV set to Caco by SC4BP01::BATCH RECIPE                                    
14/09/2004 08:56:00.2 [SBP01   ] Fix32.thisnode.name50.A_CV set to  gua by SC4BP01::BATCH RECIPE                                    
14/09/2004 08:56:00.3 [SBP01   ] Fix32.thisnode.name51.A_CV set to Vapor by SC4BP01::BATCH RECIPE                                   
14/09/2004 08:56:00.3 [SBP01   ] Fix32.thisnode.name201.A_CV set to Mst 1 seco by SC4BP01::BATCH RECIPE                             
14/09/2004 08:56:00.3 [SBP01   ] Fix32.thisnode.name202.A_CV set to Mst 2 seco by SC4BP01::BATCH RECIPE                             
14/09/2004 08:56:00.3 [SBP01   ] Fix32.thisnode.name203.A_CV set to Mst 1  mido by SC4BP01::BATCH RECIPE                            
14/09/2004 08:56:00.4 [SBP01   ] Fix32.thisnode.name204.A_CV set to Mst 2  mido by SC4BP01::BATCH RECIPE                            
14/09/2004 08:59:34.3 [SBP01   ] FURNACE_HOPPER_ALARM_WORD ALARM is acknowledged by SC4BP01::BATCH RECIPE                           
14/09/2004 08:59:34.3 [SBP01   ] FURNACE_HOPPER_ALARM_WORD ALARM is acknowledged by SC4BP01::BATCH RECIPE                           
14/09/2004 08:59:35.0 [SBP01   ] FURNACE_HOPPER_ALARM_08 ALARM is acknowledged by SC4BP01::BATCH RECIPE                             
14/09/2004 08:59:35.5 [SBP01   ] FURNACE_HOPPER_ALARM_09 ALARM is acknowledged by SC4BP01::BATCH RECIPE                             
14/09/2004 08:59:35.5 [SBP01   ] FURNACE_HOPPER_ALARM_09 ALARM is acknowledged by SC4BP01::BATCH RECIPE                             
14/09/2004 08:59:35.9 [SBP01   ] PROFI_PLCF13_SLAVE9_DIAG_1 ALARM is acknowledged by SC4BP01::BATCH RECIPE                          
14/09/2004 08:59:44.0 [SBP01   ] Fix32.sbp01.alltime1.f_cv set to 1 by SC4BP01::BATCH RECIPE                                        
14/09/2004 08:59:46.6 [SBP01   ] BATCH_HOLD                                         1      BATCH HOLD = 1                          
14/09/2004 08:59:46.6 [SBP01   ] Fix32.SBP01.batch_hold.f_CV set to 1 by SC4BP01::BATCH RECIPE                                      
14/09/2004 09:00:00.3 [SBP01   ] Fix32.thisnode.name1.A_CV set to Areia 1 by SC4BP01::BATCH RECIPE                                  
14/09/2004 09:00:00.4 [SBP01   ] Fix32.thisnode.name2.A_CV set to Areia 2 by SC4BP01::BATCH RECIPE                                  
14/09/2004 09:00:00.4 [SBP01   ] Fix32.thisnode.name3.A_CV set to Dolomita by SC4BP01::BATCH RECIPE                                 
14/09/2004 09:00:00.4 [SBP01   ] Fix32.thisnode.name4.A_CV set to Calcario by SC4BP01::BATCH RECIPE                                 
14/09/2004 09:00:00.4 [SBP01   ] Fix32.thisnode.name5.A_CV set to Reserva by SC4BP01::BATCH RECIPE                                  
14/09/2004 09:00:00.5 [SBP01   ] Fix32.thisnode.name6.A_CV set to Barrilha by SC4BP01::BATCH RECIPE                                 
14/09/2004 09:00:00.5 [SBP01   ] Fix32.thisnode.name7.A_CV set to Feldspato by SC4BP01::BATCH RECIPE                                
14/09/2004 09:00:00.5 [SBP01   ] Fix32.thisnode.name8.A_CV set to Sulfato by SC4BP01::BATCH RECIPE                                  
14/09/2004 09:00:00.6 [SBP01   ] Fix32.thisnode.name9.A_CV set to Po de EP by SC4BP01::BATCH RECIPE                                 
14/09/2004 09:00:00.6 [SBP01   ] Fix32.thisnode.name10.A_CV set to Grafite by SC4BP01::BATCH RECIPE                                 
14/09/2004 09:00:00.6 [SBP01   ] Fix32.thisnode.name11.A_CV set to Ferro by SC4BP01::BATCH RECIPE                                   
14/09/2004 09:00:00.6 [SBP01   ] Fix32.thisnode.name12.A_CV set to Nitrato by SC4BP01::BATCH RECIPE                                 
14/09/2004 09:00:00.6 [SBP01   ] Fix32.thisnode.name14.A_CV set to Selenio by SC4BP01::BATCH RECIPE                                 
14/09/2004 09:00:00.6 [SBP01   ] Fix32.thisnode.name15.A_CV set to Cobalto by SC4BP01::BATCH RECIPE                                 
14/09/2004 09:00:00.7 [SBP01   ] Fix32.thisnode.name16.A_CV set to Ferro by SC4BP01::BATCH RECIPE                                   
14/09/2004 09:00:00.7 [SBP01   ] Fix32.thisnode.name20.A_CV set to Caco by SC4BP01::BATCH RECIPE                                    
14/09/2004 09:00:00.7 [SBP01   ] Fix32.thisnode.name50.A_CV set to  gua by SC4BP01::BATCH RECIPE                                    
14/09/2004 09:00:00.8 [SBP01   ] Fix32.thisnode.name51.A_CV set to Vapor by SC4BP01::BATCH RECIPE                                   
14/09/2004 09:00:00.8 [SBP01   ] Fix32.thisnode.name201.A_CV set to Mst 1 seco by SC4BP01::BATCH RECIPE                             
14/09/2004 09:00:00.8 [SBP01   ] Fix32.thisnode.name202.A_CV set to Mst 2 seco by SC4BP01::BATCH RECIPE                             
14/09/2004 09:00:00.9 [SBP01   ] Fix32.thisnode.name203.A_CV set to Mst 1  mido by SC4BP01::BATCH RECIPE                            
14/09/2004 09:00:00.9 [SBP01   ] Fix32.thisnode.name204.A_CV set to Mst 2  mido by SC4BP01::BATCH RECIPE                            
14/09/2004 09:03:03.5 [SCE01   ] CE_M347_ANM_SAFETY_AREA        CFN             CLOSE      CE M347 SAFETY AREA                     
14/09/2004 09:03:20.0 [SCE01   ] CE_M347_ANM_SAFETY_AREA        CFN             CLOSE      CE M347 SAFETY AREA                     
14/09/2004 09:03:06.5 [SCE01   ] CE_M601_ANM_SAFETY_AREA        CFN             CLOSE      CE M601 SAFETY AREA                     
14/09/2004 09:03:21.0 [SCE01   ] CE_M601_ANM_SAFETY_AREA        CFN             CLOSE      CE M601 SAFETY AREA                     
14/09/2004 09:03:17.5 [SCE01   ] CE_M601_ANM_SAFETY_AREA        OK               OPEN      CE M601 SAFETY AREA                     
14/09/2004 09:03:33.0 [SCE01   ] CE_M601_ANM_SAFETY_AREA        OK               OPEN      CE M601 SAFETY AREA                     
14/09/2004 09:03:59.8 [SBP01   ] Fix32.thisnode.name1.A_CV set to Areia 1 by SC4BP01::BATCH RECIPE                                  
14/09/2004 09:03:59.8 [SBP01   ] Fix32.thisnode.name2.A_CV set to Areia 2 by SC4BP01::BATCH RECIPE                                  
14/09/2004 09:03:59.8 [SBP01   ] Fix32.thisnode.name3.A_CV set to Dolomita by SC4BP01::BATCH RECIPE                                 
14/09/2004 09:03:59.9 [SBP01   ] Fix32.thisnode.name4.A_CV set to Calcario by SC4BP01::BATCH RECIPE                                 
14/09/2004 09:03:59.9 [SBP01   ] Fix32.thisnode.name5.A_CV set to Reserva by SC4BP01::BATCH RECIPE                                  
14/09/2004 09:03:59.9 [SBP01   ] Fix32.thisnode.name6.A_CV set to Barrilha by SC4BP01::BATCH RECIPE                                 
14/09/2004 09:03:59.9 [SBP01   ] Fix32.thisnode.name7.A_CV set to Feldspato by SC4BP01::BATCH RECIPE                                
14/09/2004 09:04:00.0 [SBP01   ] Fix32.thisnode.name8.A_CV set to Sulfato by SC4BP01::BATCH RECIPE                                  
14/09/2004 09:04:00.0 [SBP01   ] Fix32.thisnode.name9.A_CV set to Po de EP by SC4BP01::BATCH RECIPE                                 
14/09/2004 09:04:00.0 [SBP01   ] Fix32.thisnode.name10.A_CV set to Grafite by SC4BP01::BATCH RECIPE                                 
14/09/2004 09:04:00.0 [SBP01   ] Fix32.thisnode.name11.A_CV set to Ferro by SC4BP01::BATCH RECIPE                                   
14/09/2004 09:04:00.1 [SBP01   ] Fix32.thisnode.name12.A_CV set to Nitrato by SC4BP01::BATCH RECIPE                                 
14/09/2004 09:04:00.1 [SBP01   ] Fix32.thisnode.name14.A_CV set to Selenio by SC4BP01::BATCH RECIPE                                 
14/09/2004 09:04:00.1 [SBP01   ] Fix32.thisnode.name15.A_CV set to Cobalto by SC4BP01::BATCH RECIPE                                 
14/09/2004 09:04:00.1 [SBP01   ] Fix32.thisnode.name16.A_CV set to Ferro by SC4BP01::BATCH RECIPE                                   
14/09/2004 09:04:00.1 [SBP01   ] Fix32.thisnode.name20.A_CV set to Caco by SC4BP01::BATCH RECIPE                                    
14/09/2004 09:04:00.1 [SBP01   ] Fix32.thisnode.name50.A_CV set to  gua by SC4BP01::BATCH RECIPE                                    
14/09/2004 09:04:00.2 [SBP01   ] Fix32.thisnode.name51.A_CV set to Vapor by SC4BP01::BATCH RECIPE                                   
14/09/2004 09:04:00.2 [SBP01   ] Fix32.thisnode.name201.A_CV set to Mst 1 seco by SC4BP01::BATCH RECIPE                             
14/09/2004 09:04:00.2 [SBP01   ] Fix32.thisnode.name202.A_CV set to Mst 2 seco by SC4BP01::BATCH RECIPE                             
14/09/2004 09:04:00.2 [SBP01   ] Fix32.thisnode.name203.A_CV set to Mst 1  mido by SC4BP01::BATCH RECIPE                            
14/09/2004 09:04:00.2 [SBP01   ] Fix32.thisnode.name204.A_CV set to Mst 2  mido by SC4BP01::BATCH RECIPE                            
14/09/2004 09:06:54.0 [SCE01   ] CE_M347_ANM_SAFETY_AREA        OK               OPEN      CE M347 SAFETY AREA                     
14/09/2004 09:06:39.6 [SCE01   ] CE_M347_ANM_SAFETY_AREA        OK               OPEN      CE M347 SAFETY AREA                     
14/09/2004 09:07:59.8 [SBP01   ] Fix32.thisnode.name1.A_CV set to Areia 1 by SC4BP01::BATCH RECIPE                                  
14/09/2004 09:07:59.8 [SBP01   ] Fix32.thisnode.name2.A_CV set to Areia 2 by SC4BP01::BATCH RECIPE                                  
14/09/2004 09:07:59.8 [SBP01   ] Fix32.thisnode.name3.A_CV set to Dolomita by SC4BP01::BATCH RECIPE                                 
14/09/2004 09:07:59.9 [SBP01   ] Fix32.thisnode.name4.A_CV set to Calcario by SC4BP01::BATCH RECIPE                                 
14/09/2004 09:07:59.9 [SBP01   ] Fix32.thisnode.name5.A_CV set to Reserva by SC4BP01::BATCH RECIPE                                  
14/09/2004 09:07:59.9 [SBP01   ] Fix32.thisnode.name6.A_CV set to Barrilha by SC4BP01::BATCH RECIPE                                 
14/09/2004 09:07:59.9 [SBP01   ] Fix32.thisnode.name7.A_CV set to Feldspato by SC4BP01::BATCH RECIPE                                
14/09/2004 09:07:59.9 [SBP01   ] Fix32.thisnode.name8.A_CV set to Sulfato by SC4BP01::BATCH RECIPE                                  
14/09/2004 09:08:00.0 [SBP01   ] Fix32.thisnode.name9.A_CV set to Po de EP by SC4BP01::BATCH RECIPE                                 
14/09/2004 09:08:00.0 [SBP01   ] Fix32.thisnode.name10.A_CV set to Grafite by SC4BP01::BATCH RECIPE                                 
14/09/2004 09:08:00.0 [SBP01   ] Fix32.thisnode.name11.A_CV set to Ferro by SC4BP01::BATCH RECIPE                                   
14/09/2004 09:08:00.0 [SBP01   ] Fix32.thisnode.name12.A_CV set to Nitrato by SC4BP01::BATCH RECIPE                                 
14/09/2004 09:08:00.0 [SBP01   ] Fix32.thisnode.name14.A_CV set to Selenio by SC4BP01::BATCH RECIPE                                 
14/09/2004 09:08:00.0 [SBP01   ] Fix32.thisnode.name15.A_CV set to Cobalto by SC4BP01::BATCH RECIPE                                 
14/09/2004 09:08:00.0 [SBP01   ] Fix32.thisnode.name16.A_CV set to Ferro by SC4BP01::BATCH RECIPE                                   
14/09/2004 09:08:00.1 [SBP01   ] Fix32.thisnode.name20.A_CV set to Caco by SC4BP01::BATCH RECIPE                                    
14/09/2004 09:08:00.1 [SBP01   ] Fix32.thisnode.name50.A_CV set to  gua by SC4BP01::BATCH RECIPE                                    
14/09/2004 09:08:00.1 [SBP01   ] Fix32.thisnode.name51.A_CV set to Vapor by SC4BP01::BATCH RECIPE                                   
14/09/2004 09:08:00.3 [SBP01   ] Fix32.thisnode.name201.A_CV set to Mst 1 seco by SC4BP01::BATCH RECIPE                             
14/09/2004 09:08:00.3 [SBP01   ] Fix32.thisnode.name202.A_CV set to Mst 2 seco by SC4BP01::BATCH RECIPE                             
14/09/2004 09:08:00.4 [SBP01   ] Fix32.thisnode.name203.A_CV set to Mst 1  mido by SC4BP01::BATCH RECIPE                            
14/09/2004 09:08:00.4 [SBP01   ] Fix32.thisnode.name204.A_CV set to Mst 2  mido by SC4BP01::BATCH RECIPE                            
14/09/2004 09:08:10.3 [SBP01   ] Fix32.SBP01.test_weighingmx2_on_from_pc.F_CV set to 1 by SC4BP01::BATCH RECIPE                     
14/09/2004 09:10:25.6 [SBP01   ] Fix32.SBP01.test_weighingmx2_on_from_pc.F_CV set to 1 by SC4BP01::BATCH RECIPE                     
14/09/2004 09:10:31.1 [SBP01   ] Fix32.SBP01.test_weighingmx2_on_from_pc.F_CV set to 0 by SC4BP01::BATCH RECIPE                     
14/09/2004 09:10:37.2 [SBP01   ] Fix32.SBP01.test_weighingmx2_on_from_pc.F_CV set to 1 by SC4BP01::BATCH RECIPE                     
14/09/2004 09:11:59.8 [SBP01   ] Fix32.thisnode.name1.A_CV set to Areia 1 by SC4BP01::BATCH RECIPE                                  
14/09/2004 09:11:59.8 [SBP01   ] Fix32.thisnode.name2.A_CV set to Areia 2 by SC4BP01::BATCH RECIPE                                  
14/09/2004 09:11:59.8 [SBP01   ] Fix32.thisnode.name3.A_CV set to Dolomita by SC4BP01::BATCH RECIPE                                 
14/09/2004 09:11:59.8 [SBP01   ] Fix32.thisnode.name4.A_CV set to Calcario by SC4BP01::BATCH RECIPE                                 
14/09/2004 09:11:59.9 [SBP01   ] Fix32.thisnode.name5.A_CV set to Reserva by SC4BP01::BATCH RECIPE                                  
14/09/2004 09:11:59.9 [SBP01   ] Fix32.thisnode.name6.A_CV set to Barrilha by SC4BP01::BATCH RECIPE                                 
14/09/2004 09:11:59.9 [SBP01   ] Fix32.thisnode.name7.A_CV set to Feldspato by SC4BP01::BATCH RECIPE                                
14/09/2004 09:11:59.9 [SBP01   ] Fix32.thisnode.name8.A_CV set to Sulfato by SC4BP01::BATCH RECIPE                                  
14/09/2004 09:11:59.9 [SBP01   ] Fix32.thisnode.name9.A_CV set to Po de EP by SC4BP01::BATCH RECIPE                                 
14/09/2004 09:11:59.9 [SBP01   ] Fix32.thisnode.name10.A_CV set to Grafite by SC4BP01::BATCH RECIPE                                 
14/09/2004 09:12:00.0 [SBP01   ] Fix32.thisnode.name11.A_CV set to Ferro by SC4BP01::BATCH RECIPE                                   
14/09/2004 09:12:00.0 [SBP01   ] Fix32.thisnode.name12.A_CV set to Nitrato by SC4BP01::BATCH RECIPE                                 
14/09/2004 09:12:00.0 [SBP01   ] Fix32.thisnode.name14.A_CV set to Selenio by SC4BP01::BATCH RECIPE                                 
14/09/2004 09:12:00.0 [SBP01   ] Fix32.thisnode.name15.A_CV set to Cobalto by SC4BP01::BATCH RECIPE                                 
14/09/2004 09:12:00.0 [SBP01   ] Fix32.thisnode.name16.A_CV set to Ferro by SC4BP01::BATCH RECIPE                                   
14/09/2004 09:12:00.1 [SBP01   ] Fix32.thisnode.name20.A_CV set to Caco by SC4BP01::BATCH RECIPE                                    
14/09/2004 09:12:00.1 [SBP01   ] Fix32.thisnode.name50.A_CV set to  gua by SC4BP01::BATCH RECIPE                                    
14/09/2004 09:12:00.1 [SBP01   ] Fix32.thisnode.name51.A_CV set to Vapor by SC4BP01::BATCH RECIPE                                   
14/09/2004 09:12:00.1 [SBP01   ] Fix32.thisnode.name201.A_CV set to Mst 1 seco by SC4BP01::BATCH RECIPE                             
14/09/2004 09:12:00.1 [SBP01   ] Fix32.thisnode.name202.A_CV set to Mst 2 seco by SC4BP01::BATCH RECIPE                             
14/09/2004 09:12:00.1 [SBP01   ] Fix32.thisnode.name203.A_CV set to Mst 1  mido by SC4BP01::BATCH RECIPE                            
14/09/2004 09:12:00.1 [SBP01   ] Fix32.thisnode.name204.A_CV set to Mst 2  mido by SC4BP01::BATCH RECIPE                            
14/09/2004 09:12:31.5 [SBP01   ] Fix32.SBP01.test_weighingmx2_on_from_pc.F_CV set to 1 by SC4BP01::BATCH RECIPE                     
14/09/2004 09:14:19.5 [SBP01   ] Fix32.SBP01.test_weighingmx2_on_from_pc.F_CV set to 0 by SC4BP01::BATCH RECIPE                     
14/09/2004 09:14:31.6 [SBP01   ] Fix32.sbp01.alltime1.f_cv set to 1 by SC4BP01::BATCH RECIPE                                        
14/09/2004 09:14:35.5 [SBP01   ] Fix32.sbp01.alltime1.f_cv set to 1 by SC4BP01::BATCH RECIPE                                        
14/09/2004 09:14:36.9 [SBP01   ] BATCH_HOLD                                         0      BATCH HOLD = 1                          
14/09/2004 09:14:36.9 [SBP01   ] Fix32.SBP01.batch_hold.f_CV set to 0 by SC4BP01::BATCH RECIPE                                      
14/09/2004 09:14:41.7 [SBP01   ] DOSING_HOLD                                        1      DOSING HOLD = 1                         
14/09/2004 09:14:41.7 [SBP01   ] Fix32.SBP01.dosing_hold.f_CV set to 1 by SC4BP01::BATCH RECIPE                                     
14/09/2004 09:15:57.7 [SBP01   ] Fix32.sbp01.alltime1.f_cv set to 1 by SC4BP01::BATCH RECIPE                                        
14/09/2004 09:15:59.8 [SBP01   ] Fix32.thisnode.name1.A_CV set to Areia 1 by SC4BP01::BATCH RECIPE                                  
14/09/2004 09:15:59.8 [SBP01   ] Fix32.thisnode.name2.A_CV set to Areia 2 by SC4BP01::BATCH RECIPE                                  
14/09/2004 09:15:59.9 [SBP01   ] Fix32.thisnode.name3.A_CV set to Dolomita by SC4BP01::BATCH RECIPE                                 
14/09/2004 09:15:59.9 [SBP01   ] Fix32.thisnode.name4.A_CV set to Calcario by SC4BP01::BATCH RECIPE                                 
14/09/2004 09:15:59.9 [SBP01   ] Fix32.thisnode.name5.A_CV set to Reserva by SC4BP01::BATCH RECIPE                                  
14/09/2004 09:15:59.9 [SBP01   ] Fix32.thisnode.name6.A_CV set to Barrilha by SC4BP01::BATCH RECIPE                                 
14/09/2004 09:16:00.0 [SBP01   ] Fix32.thisnode.name7.A_CV set to Feldspato by SC4BP01::BATCH RECIPE                                
14/09/2004 09:16:00.0 [SBP01   ] Fix32.thisnode.name8.A_CV set to Sulfato by SC4BP01::BATCH RECIPE                                  
14/09/2004 09:16:00.0 [SBP01   ] Fix32.thisnode.name9.A_CV set to Po de EP by SC4BP01::BATCH RECIPE                                 
14/09/2004 09:16:00.0 [SBP01   ] Fix32.thisnode.name10.A_CV set to Grafite by SC4BP01::BATCH RECIPE                                 
14/09/2004 09:16:00.0 [SBP01   ] Fix32.thisnode.name11.A_CV set to Ferro by SC4BP01::BATCH RECIPE                                   
14/09/2004 09:16:00.1 [SBP01   ] Fix32.thisnode.name12.A_CV set to Nitrato by SC4BP01::BATCH RECIPE                                 
14/09/2004 09:16:00.1 [SBP01   ] Fix32.thisnode.name14.A_CV set to Selenio by SC4BP01::BATCH RECIPE                                 
14/09/2004 09:16:00.1 [SBP01   ] Fix32.thisnode.name15.A_CV set to Cobalto by SC4BP01::BATCH RECIPE                                 
14/09/2004 09:16:00.1 [SBP01   ] Fix32.thisnode.name16.A_CV set to Ferro by SC4BP01::BATCH RECIPE                                   
14/09/2004 09:16:00.1 [SBP01   ] Fix32.thisnode.name20.A_CV set to Caco by SC4BP01::BATCH RECIPE                                    
14/09/2004 09:16:00.2 [SBP01   ] Fix32.thisnode.name50.A_CV set to  gua by SC4BP01::BATCH RECIPE                                    
14/09/2004 09:16:00.2 [SBP01   ] Fix32.thisnode.name51.A_CV set to Vapor by SC4BP01::BATCH RECIPE                                   
14/09/2004 09:16:00.3 [SBP01   ] Fix32.thisnode.name201.A_CV set to Mst 1 seco by SC4BP01::BATCH RECIPE                             
14/09/2004 09:16:00.3 [SBP01   ] Fix32.thisnode.name202.A_CV set to Mst 2 seco by SC4BP01::BATCH RECIPE                             
14/09/2004 09:16:00.3 [SBP01   ] Fix32.thisnode.name203.A_CV set to Mst 1  mido by SC4BP01::BATCH RECIPE                            
14/09/2004 09:16:00.4 [SBP01   ] Fix32.thisnode.name204.A_CV set to Mst 2  mido by SC4BP01::BATCH RECIPE                            
14/09/2004 09:16:02.4 [SBP01   ] TEST_WEIGHING1_ON_FROM_PC                          1      Test weighing1 on from pc               
14/09/2004 09:16:02.4 [SBP01   ] Fix32.SBP01.test_weighing1_on_from_pc.F_CV set to 1 by SC4BP01::BATCH RECIPE                       
14/09/2004 09:16:14.1 [SBP01   ] Fix32.sbp01.alltime1.f_cv set to 1 by SC4BP01::BATCH RECIPE                                        
14/09/2004 09:16:15.7 [SBP01   ] DOSING_START                                       0      DOSING START = 1                        
14/09/2004 09:16:15.8 [SBP01   ] Fix32.SBP01.dosing_start.f_CV set to 0 by SC4BP01::BATCH RECIPE                                    
14/09/2004 09:16:21.2 [SBP01   ] DOSING_HOLD                                        0      DOSING HOLD = 1                         
14/09/2004 09:16:21.2 [SBP01   ] Fix32.SBP01.dosing_hold.f_CV set to 0 by SC4BP01::BATCH RECIPE                                     
14/09/2004 09:16:41.0 [SBP01   ] TEST_WEIGHING1_ON_FROM_PC                          1      Test weighing1 on from pc               
14/09/2004 09:16:41.0 [SBP01   ] Fix32.SBP01.test_weighing1_on_from_pc.F_CV set to 1 by SC4BP01::BATCH RECIPE                       
14/09/2004 09:17:27.5 [SBP01   ] TEST_WEIGHING2_ON_FROM_PC                          1      Test weighing2 on from pc               
14/09/2004 09:17:27.5 [SBP01   ] Fix32.SBP01.test_weighing2_on_from_pc.F_CV set to 1 by SC4BP01::BATCH RECIPE                       
14/09/2004 09:18:14.4 [SBP01   ] TEST_WEIGHING2_ON_FROM_PC                          1      Test weighing2 on from pc               
14/09/2004 09:18:14.5 [SBP01   ] Fix32.SBP01.test_weighing2_on_from_pc.F_CV set to 1 by SC4BP01::BATCH RECIPE                       
14/09/2004 09:19:04.8 [SBP01   ] TEST_WEIGHING3_ON_FROM_PC                          1      Test weighing3 on from pc               
14/09/2004 09:19:04.8 [SBP01   ] Fix32.SBP01.test_weighing3_on_from_pc.F_CV set to 1 by SC4BP01::BATCH RECIPE                       
14/09/2004 09:20:00.1 [SBP01   ] TEST_WEIGHING1_ON_FROM_PC                          1      Test weighing1 on from pc               
14/09/2004 09:20:00.1 [SBP01   ] Fix32.SBP01.test_weighing1_on_from_pc.F_CV set to 1 by SC4BP01::BATCH RECIPE                       
14/09/2004 09:20:00.2 [SBP01   ] Fix32.thisnode.name1.A_CV set to Areia 1 by SC4BP01::BATCH RECIPE                                  
14/09/2004 09:20:00.2 [SBP01   ] Fix32.thisnode.name2.A_CV set to Areia 2 by SC4BP01::BATCH RECIPE                                  
14/09/2004 09:20:00.2 [SBP01   ] Fix32.thisnode.name3.A_CV set to Dolomita by SC4BP01::BATCH RECIPE                                 
14/09/2004 09:20:00.3 [SBP01   ] Fix32.thisnode.name4.A_CV set to Calcario by SC4BP01::BATCH RECIPE                                 
14/09/2004 09:20:00.3 [SBP01   ] Fix32.thisnode.name5.A_CV set to Reserva by SC4BP01::BATCH RECIPE                                  
14/09/2004 09:20:00.3 [SBP01   ] Fix32.thisnode.name6.A_CV set to Barrilha by SC4BP01::BATCH RECIPE                                 
14/09/2004 09:20:00.3 [SBP01   ] Fix32.thisnode.name7.A_CV set to Feldspato by SC4BP01::BATCH RECIPE                                
14/09/2004 09:20:00.3 [SBP01   ] Fix32.thisnode.name8.A_CV set to Sulfato by SC4BP01::BATCH RECIPE                                  
14/09/2004 09:20:00.3 [SBP01   ] Fix32.thisnode.name9.A_CV set to Po de EP by SC4BP01::BATCH RECIPE                                 
14/09/2004 09:20:00.3 [SBP01   ] Fix32.thisnode.name10.A_CV set to Grafite by SC4BP01::BATCH RECIPE                                 
14/09/2004 09:20:00.4 [SBP01   ] Fix32.thisnode.name11.A_CV set to Ferro by SC4BP01::BATCH RECIPE                                   
14/09/2004 09:20:00.4 [SBP01   ] Fix32.thisnode.name12.A_CV set to Nitrato by SC4BP01::BATCH RECIPE                                 
14/09/2004 09:20:00.4 [SBP01   ] Fix32.thisnode.name14.A_CV set to Selenio by SC4BP01::BATCH RECIPE                                 
14/09/2004 09:20:00.4 [SBP01   ] Fix32.thisnode.name15.A_CV set to Cobalto by SC4BP01::BATCH RECIPE                                 
14/09/2004 09:20:00.4 [SBP01   ] Fix32.thisnode.name16.A_CV set to Ferro by SC4BP01::BATCH RECIPE                                   
14/09/2004 09:20:00.4 [SBP01   ] Fix32.thisnode.name20.A_CV set to Caco by SC4BP01::BATCH RECIPE                                    
14/09/2004 09:20:00.5 [SBP01   ] Fix32.thisnode.name50.A_CV set to  gua by SC4BP01::BATCH RECIPE                                    
14/09/2004 09:20:00.5 [SBP01   ] Fix32.thisnode.name51.A_CV set to Vapor by SC4BP01::BATCH RECIPE                                   
14/09/2004 09:20:00.5 [SBP01   ] Fix32.thisnode.name201.A_CV set to Mst 1 seco by SC4BP01::BATCH RECIPE                             
14/09/2004 09:20:00.5 [SBP01   ] Fix32.thisnode.name202.A_CV set to Mst 2 seco by SC4BP01::BATCH RECIPE                             
14/09/2004 09:20:00.5 [SBP01   ] Fix32.thisnode.name203.A_CV set to Mst 1  mido by SC4BP01::BATCH RECIPE                            
14/09/2004 09:20:00.5 [SBP01   ] Fix32.thisnode.name204.A_CV set to Mst 2  mido by SC4BP01::BATCH RECIPE                            
14/09/2004 09:20:02.9 [SBP01   ] TEST_WEIGHING3_ON_FROM_PC                          1      Test weighing3 on from pc               
14/09/2004 09:20:02.9 [SBP01   ] Fix32.SBP01.test_weighing3_on_from_pc.F_CV set to 1 by SC4BP01::BATCH RECIPE                       
14/09/2004 09:20:57.2 [SHE10   ] RS_BA1006 ALARM is acknowledged by SC4HE10::HOT END OPERATOR                                       
14/09/2004 09:20:57.2 [SHE10   ] RS_BA1006 ALARM is acknowledged by SC4HE10::HOT END OPERATOR                                       
14/09/2004 09:21:24.4 [SBP01   ] Fix32.SBP01.RH1_M1_ALARM_WORD.F_CV set to 0 by SC4BP01::BATCH RECIPE                               
14/09/2004 09:22:00.5 [SBP01   ] Fix32.sbp01.alltime1.f_cv set to 1 by WC4BP01::BATCH PLANT OPERATOR                                
14/09/2004 09:22:03.6 [SBP01   ] FURNACE_HOPPER_ALARM_WORD ALARM is acknowledged by WC4BP01::BATCH PLANT OPERATOR                   
14/09/2004 09:22:03.7 [SBP01   ] FURNACE_HOPPER_ALARM_WORD ALARM is acknowledged by WC4BP01::BATCH PLANT OPERATOR                   
14/09/2004 09:23:59.8 [SBP01   ] Fix32.thisnode.name1.A_CV set to Areia 1 by SC4BP01::BATCH RECIPE                                  
14/09/2004 09:23:59.8 [SBP01   ] Fix32.thisnode.name2.A_CV set to Areia 2 by SC4BP01::BATCH RECIPE                                  
14/09/2004 09:23:59.8 [SBP01   ] Fix32.thisnode.name3.A_CV set to Dolomita by SC4BP01::BATCH RECIPE                                 
14/09/2004 09:23:59.8 [SBP01   ] Fix32.thisnode.name4.A_CV set to Calcario by SC4BP01::BATCH RECIPE                                 
14/09/2004 09:23:59.9 [SBP01   ] Fix32.thisnode.name5.A_CV set to Reserva by SC4BP01::BATCH RECIPE                                  
14/09/2004 09:23:59.9 [SBP01   ] Fix32.thisnode.name6.A_CV set to Barrilha by SC4BP01::BATCH RECIPE                                 
14/09/2004 09:23:59.9 [SBP01   ] Fix32.thisnode.name7.A_CV set to Feldspato by SC4BP01::BATCH RECIPE                                
14/09/2004 09:23:59.9 [SBP01   ] Fix32.thisnode.name8.A_CV set to Sulfato by SC4BP01::BATCH RECIPE                                  
14/09/2004 09:23:59.9 [SBP01   ] Fix32.thisnode.name9.A_CV set to Po de EP by SC4BP01::BATCH RECIPE                                 
14/09/2004 09:23:59.9 [SBP01   ] Fix32.thisnode.name10.A_CV set to Grafite by SC4BP01::BATCH RECIPE                                 
14/09/2004 09:23:59.9 [SBP01   ] Fix32.thisnode.name11.A_CV set to Ferro by SC4BP01::BATCH RECIPE                                   
14/09/2004 09:24:00.0 [SBP01   ] Fix32.thisnode.name12.A_CV set to Nitrato by SC4BP01::BATCH RECIPE                                 
14/09/2004 09:24:00.0 [SBP01   ] Fix32.thisnode.name14.A_CV set to Selenio by SC4BP01::BATCH RECIPE                                 
14/09/2004 09:24:00.0 [SBP01   ] Fix32.thisnode.name15.A_CV set to Cobalto by SC4BP01::BATCH RECIPE                                 
14/09/2004 09:24:00.0 [SBP01   ] Fix32.thisnode.name16.A_CV set to Ferro by SC4BP01::BATCH RECIPE                                   
14/09/2004 09:24:00.0 [SBP01   ] Fix32.thisnode.name20.A_CV set to Caco by SC4BP01::BATCH RECIPE                                    
14/09/2004 09:24:00.0 [SBP01   ] Fix32.thisnode.name50.A_CV set to  gua by SC4BP01::BATCH RECIPE                                    
14/09/2004 09:24:00.1 [SBP01   ] Fix32.thisnode.name51.A_CV set to Vapor by SC4BP01::BATCH RECIPE                                   
14/09/2004 09:24:00.1 [SBP01   ] Fix32.thisnode.name201.A_CV set to Mst 1 seco by SC4BP01::BATCH RECIPE                             
14/09/2004 09:24:00.1 [SBP01   ] Fix32.thisnode.name202.A_CV set to Mst 2 seco by SC4BP01::BATCH RECIPE                             
14/09/2004 09:24:00.1 [SBP01   ] Fix32.thisnode.name203.A_CV set to Mst 1  mido by SC4BP01::BATCH RECIPE                            
14/09/2004 09:24:00.1 [SBP01   ] Fix32.thisnode.name204.A_CV set to Mst 2  mido by SC4BP01::BATCH RECIPE                            
14/09/2004 09:24:41.1 [SCE07   ] EDGE_SYSTEM_AUTO_STRAIN        CFN             ALARM      Stress: Edge Stress Water in Manual     
14/09/2004 09:25:20.3 [SCE01   ] Fix32.SCE01.PAT01_LIN_ENAB.F_CV set to 0 by WC4CE02::COLD END OPERATOR                             
14/09/2004 09:25:20.1 [SCE07   ] EDGE_SYSTEM_AUTO_MOVE          CFN             ALARM      Stress: Edge Stress Movement in Manual  
14/09/2004 09:25:24.6 [SCE01   ] Fix32.SCE01.PAT07_LIN_ENAB.F_CV set to 0 by WC4CE02::COLD END OPERATOR                             
14/09/2004 09:24:55.3 [SCE01   ] Fix32.SCE01.PAT08_LIN_ENAB.F_CV set to 1 by WC4CE01::COLD END OPERATOR                             
14/09/2004 09:24:57.5 [SCE01   ] Fix32.SCE01.PAT07_LIN_ENAB.F_CV set to 0 by WC4CE01::COLD END OPERATOR                             
14/09/2004 09:25:27.1 [SCE07   ] EDGE_SYSTEM_AUTO_MOVE          CFN             ALARM      Stress: Edge Stress Movement in Manual  
14/09/2004 09:25:00.5 [SCE01   ] Fix32.SCE01.PAT07_NREQ.F_CV set to 0. by WC4CE01::COLD END OPERATOR                                
14/09/2004 09:25:36.1 [SCE07   ] EDGE_SYSTEM_AUTO_MOVE          CFN             ALARM      Stress: Edge Stress Movement in Manual  
14/09/2004 09:27:51.0 [SBP01   ] FURNACE_HOPPER_ALARM_WORD ALARM is acknowledged by SC4BP01::BATCH RECIPE                           
14/09/2004 09:27:51.0 [SBP01   ] FURNACE_HOPPER_ALARM_WORD ALARM is acknowledged by SC4BP01::BATCH RECIPE                           
14/09/2004 09:27:51.8 [SBP01   ] FURNACE_HOPPER_ALARM_05 ALARM is acknowledged by SC4BP01::BATCH RECIPE                             
14/09/2004 09:27:51.9 [SBP01   ] FURNACE_HOPPER_ALARM_05 ALARM is acknowledged by SC4BP01::BATCH RECIPE                             
14/09/2004 09:27:52.3 [SBP01   ] FURNACE_HOPPER_ALARM_02 ALARM is acknowledged by SC4BP01::BATCH RECIPE                             
14/09/2004 09:27:58.2 [SBP01   ] FURNACE_HOPPER_ALARM_02 ALARM is acknowledged by SC4BP01::BATCH RECIPE                             
14/09/2004 09:27:58.2 [SBP01   ] FURNACE_HOPPER_ALARM_02 ALARM is acknowledged by SC4BP01::BATCH RECIPE                             
14/09/2004 09:27:59.3 [SBP01   ] FURNACE_HOPPER_ALARM_WORD ALARM is acknowledged by SC4BP01::BATCH RECIPE                           
14/09/2004 09:27:59.3 [SBP01   ] FURNACE_HOPPER_ALARM_WORD ALARM is acknowledged by SC4BP01::BATCH RECIPE                           
14/09/2004 09:27:59.8 [SBP01   ] Fix32.thisnode.name1.A_CV set to Areia 1 by SC4BP01::BATCH RECIPE                                  
14/09/2004 09:27:59.8 [SBP01   ] Fix32.thisnode.name2.A_CV set to Areia 2 by SC4BP01::BATCH RECIPE                                  
14/09/2004 09:27:59.8 [SBP01   ] Fix32.thisnode.name3.A_CV set to Dolomita by SC4BP01::BATCH RECIPE                                 
14/09/2004 09:27:59.8 [SBP01   ] Fix32.thisnode.name4.A_CV set to Calcario by SC4BP01::BATCH RECIPE                                 
14/09/2004 09:27:59.9 [SBP01   ] Fix32.thisnode.name5.A_CV set to Reserva by SC4BP01::BATCH RECIPE                                  
14/09/2004 09:27:59.9 [SBP01   ] Fix32.thisnode.name6.A_CV set to Barrilha by SC4BP01::BATCH RECIPE                                 
14/09/2004 09:27:59.9 [SBP01   ] Fix32.thisnode.name7.A_CV set to Feldspato by SC4BP01::BATCH RECIPE                                
14/09/2004 09:27:59.9 [SBP01   ] Fix32.thisnode.name8.A_CV set to Sulfato by SC4BP01::BATCH RECIPE                                  
14/09/2004 09:27:59.9 [SBP01   ] Fix32.thisnode.name9.A_CV set to Po de EP by SC4BP01::BATCH RECIPE                                 
14/09/2004 09:28:00.0 [SBP01   ] Fix32.thisnode.name10.A_CV set to Grafite by SC4BP01::BATCH RECIPE                                 
14/09/2004 09:28:00.0 [SBP01   ] Fix32.thisnode.name11.A_CV set to Ferro by SC4BP01::BATCH RECIPE                                   
14/09/2004 09:28:00.0 [SBP01   ] Fix32.thisnode.name12.A_CV set to Nitrato by SC4BP01::BATCH RECIPE                                 
14/09/2004 09:28:00.0 [SBP01   ] Fix32.thisnode.name14.A_CV set to Selenio by SC4BP01::BATCH RECIPE                                 
14/09/2004 09:28:00.0 [SBP01   ] Fix32.thisnode.name15.A_CV set to Cobalto by SC4BP01::BATCH RECIPE                                 
14/09/2004 09:28:00.1 [SBP01   ] Fix32.thisnode.name16.A_CV set to Ferro by SC4BP01::BATCH RECIPE                                   
14/09/2004 09:28:00.1 [SBP01   ] Fix32.thisnode.name20.A_CV set to Caco by SC4BP01::BATCH RECIPE                                    
14/09/2004 09:28:00.1 [SBP01   ] Fix32.thisnode.name50.A_CV set to  gua by SC4BP01::BATCH RECIPE                                    
14/09/2004 09:28:00.1 [SBP01   ] Fix32.thisnode.name51.A_CV set to Vapor by SC4BP01::BATCH RECIPE                                   
14/09/2004 09:28:00.1 [SBP01   ] Fix32.thisnode.name201.A_CV set to Mst 1 seco by SC4BP01::BATCH RECIPE                             
14/09/2004 09:28:00.2 [SBP01   ] Fix32.thisnode.name202.A_CV set to Mst 2 seco by SC4BP01::BATCH RECIPE                             
14/09/2004 09:28:00.2 [SBP01   ] Fix32.thisnode.name203.A_CV set to Mst 1  mido by SC4BP01::BATCH RECIPE                            
14/09/2004 09:28:00.3 [SBP01   ] Fix32.thisnode.name204.A_CV set to Mst 2  mido by SC4BP01::BATCH RECIPE                            
14/09/2004 09:28:03.4 [SBP01   ] Fix32.sbp01.alltime1.f_cv set to 1 by SC4BP01::BATCH RECIPE                                        
14/09/2004 09:28:09.6 [SBP01   ] Fix32.sbp01.fedit01_locked.f_cv set to  21167 by SC4BP01::BATCH RECIPE                             
14/09/2004 09:28:09.9 [SBP01   ] Fix32.sbp01.fedit01_read.f_cv set to  1 by SC4BP01::BATCH RECIPE                                   
14/09/2004 09:28:09.9 [SBP01   ] Fix32.sbp01.Fedit01_edit.f_cv set to 0 by SC4BP01::BATCH RECIPE                                    
14/09/2004 09:28:12.0 [SBP01   ] DOSING_START                                       1      DOSING START = 1                        
14/09/2004 09:28:12.0 [SBP01   ] Fix32.sbp01.dosing_start.f_cv set to 1 by SC4BP01::BATCH RECIPE                                    
14/09/2004 09:28:15.6 [SBP01   ] Fix32.sbp01.Fedit01_locked.f_cv set to 0 by SC4BP01::BATCH RECIPE                                  
14/09/2004 09:29:35.8 [SCE01   ] Fix32.SCE01.CUT_LB1_CUTTER4_PRESSURE.F_CV set to 1250 by WC4CE04::COLD END OPERATOR                
14/09/2004 09:29:40.5 [SCE01   ] Fix32.SCE01.CUT_LB1_CUTTER2_PRESSURE.F_CV set to 1250 by WC4CE04::COLD END OPERATOR                
14/09/2004 09:29:48.5 [SCE01   ] Fix32.SCE01.PAT07_LIN_ENAB.F_CV set to 1 by WC4CE02::COLD END OPERATOR                             
14/09/2004 09:29:49.5 [SCE01   ] CE_M604_ANM_SAFETY_AREA        CFN             CLOSE      CE M604 SAFETY AREA                     
14/09/2004 09:30:06.0 [SCE01   ] CE_M604_ANM_SAFETY_AREA        CFN             CLOSE      CE M604 SAFETY AREA                     
14/09/2004 09:29:57.1 [SBP01   ] Fix32.sbp01.alltime1.f_cv set to 1 by SC4BP01::BATCH RECIPE                                        
14/09/2004 09:29:57.7 [SCE01   ] Fix32.SCE01.PAT01_LIN_ENAB.F_CV set to 1 by WC4CE02::COLD END OPERATOR                             
14/09/2004 09:30:07.5 [SCE01   ] CE_M604_ANM_SAFETY_AREA        OK               OPEN      CE M604 SAFETY AREA                     
14/09/2004 09:30:23.0 [SCE01   ] CE_M604_ANM_SAFETY_AREA        OK               OPEN      CE M604 SAFETY AREA                     
14/09/2004 09:30:59.0 [SCE01   ] CE_M604_SQ5_INDEXATION         CFN             CLOSE      CE M604 SQ5 INDEXATION                  
14/09/2004 09:30:44.5 [SCE01   ] CE_M604_SQ5_INDEXATION         CFN             CLOSE      CE M604 SQ5 INDEXATION                  
14/09/2004 09:30:44.5 [SCE01   ] CE_M604_SQ6_SAFETY_INDEXATION  CFN             CLOSE      CE M604 SQ6 SAFETY INDEXATION           
14/09/2004 09:30:59.0 [SCE01   ] CE_M604_SQ6_SAFETY_INDEXATION  CFN             CLOSE      CE M604 SQ6 SAFETY INDEXATION           
14/09/2004 09:31:11.5 [SCE01   ] CE_M604_SQ5_INDEXATION         OK               OPEN      CE M604 SQ5 INDEXATION                  
14/09/2004 09:31:28.0 [SCE01   ] CE_M604_SQ5_INDEXATION         OK               OPEN      CE M604 SQ5 INDEXATION                  
14/09/2004 09:31:31.5 [SCE01   ] CE_M604_SQ6_SAFETY_INDEXATION  OK               OPEN      CE M604 SQ6 SAFETY INDEXATION           
14/09/2004 09:31:47.0 [SCE01   ] CE_M604_SQ6_SAFETY_INDEXATION  OK               OPEN      CE M604 SQ6 SAFETY INDEXATION           
14/09/2004 09:31:40.5 [SBP01   ] Fix32.SBP01.S5_ALARM_WORD.F_CV set to 0 by SC4BP01::BATCH RECIPE                                   
14/09/2004 09:31:58.0 [SCE01   ] CE_M604_SQ6_SAFETY_INDEXATION  CFN             CLOSE      CE M604 SQ6 SAFETY INDEXATION           
14/09/2004 09:31:42.5 [SCE01   ] CE_M604_SQ6_SAFETY_INDEXATION  CFN             CLOSE      CE M604 SQ6 SAFETY INDEXATION           
14/09/2004 09:31:46.7 [SBP01   ] S5_ALARM_WORD ALARM is acknowledged by SC4BP01::BATCH RECIPE                                       
14/09/2004 09:31:46.7 [SBP01   ] S5_ALARM_WORD ALARM is acknowledged by SC4BP01::BATCH RECIPE                                       
14/09/2004 09:31:54.3 [SBP01   ] Fix32.SBP01.S9_ALARM_WORD.F_CV set to 0 by SC4BP01::BATCH RECIPE                                   
14/09/2004 09:31:58.1 [SBP01   ] Fix32.SBP01.S10_ALARM_WORD.F_CV set to 0 by SC4BP01::BATCH RECIPE                                  
14/09/2004 09:31:59.8 [SBP01   ] Fix32.thisnode.name1.A_CV set to Areia 1 by SC4BP01::BATCH RECIPE                                  
14/09/2004 09:31:59.8 [SBP01   ] Fix32.thisnode.name2.A_CV set to Areia 2 by SC4BP01::BATCH RECIPE                                  
14/09/2004 09:31:59.8 [SBP01   ] Fix32.thisnode.name3.A_CV set to Dolomita by SC4BP01::BATCH RECIPE                                 
14/09/2004 09:31:59.9 [SBP01   ] Fix32.thisnode.name4.A_CV set to Calcario by SC4BP01::BATCH RECIPE                                 
14/09/2004 09:31:59.9 [SBP01   ] Fix32.thisnode.name5.A_CV set to Reserva by SC4BP01::BATCH RECIPE                                  
14/09/2004 09:31:59.9 [SBP01   ] Fix32.thisnode.name6.A_CV set to Barrilha by SC4BP01::BATCH RECIPE                                 
14/09/2004 09:31:59.9 [SBP01   ] Fix32.thisnode.name7.A_CV set to Feldspato by SC4BP01::BATCH RECIPE                                
14/09/2004 09:31:59.9 [SBP01   ] Fix32.thisnode.name8.A_CV set to Sulfato by SC4BP01::BATCH RECIPE                                  
14/09/2004 09:31:59.9 [SBP01   ] Fix32.thisnode.name9.A_CV set to Po de EP by SC4BP01::BATCH RECIPE                                 
14/09/2004 09:31:59.9 [SBP01   ] Fix32.thisnode.name10.A_CV set to Grafite by SC4BP01::BATCH RECIPE                                 
14/09/2004 09:32:00.0 [SBP01   ] Fix32.thisnode.name11.A_CV set to Ferro by SC4BP01::BATCH RECIPE                                   
14/09/2004 09:32:00.0 [SBP01   ] Fix32.thisnode.name12.A_CV set to Nitrato by SC4BP01::BATCH RECIPE                                 
14/09/2004 09:32:00.0 [SBP01   ] Fix32.thisnode.name14.A_CV set to Selenio by SC4BP01::BATCH RECIPE                                 
14/09/2004 09:32:00.0 [SBP01   ] Fix32.thisnode.name15.A_CV set to Cobalto by SC4BP01::BATCH RECIPE                                 
14/09/2004 09:32:00.0 [SBP01   ] Fix32.thisnode.name16.A_CV set to Ferro by SC4BP01::BATCH RECIPE                                   
14/09/2004 09:32:00.1 [SBP01   ] Fix32.thisnode.name20.A_CV set to Caco by SC4BP01::BATCH RECIPE                                    
14/09/2004 09:32:00.1 [SBP01   ] Fix32.thisnode.name50.A_CV set to  gua by SC4BP01::BATCH RECIPE                                    
14/09/2004 09:32:00.1 [SBP01   ] Fix32.thisnode.name51.A_CV set to Vapor by SC4BP01::BATCH RECIPE                                   
14/09/2004 09:32:00.1 [SBP01   ] Fix32.thisnode.name201.A_CV set to Mst 1 seco by SC4BP01::BATCH RECIPE                             
14/09/2004 09:32:00.1 [SBP01   ] Fix32.thisnode.name202.A_CV set to Mst 2 seco by SC4BP01::BATCH RECIPE                             
14/09/2004 09:32:00.1 [SBP01   ] Fix32.thisnode.name203.A_CV set to Mst 1  mido by SC4BP01::BATCH RECIPE                            
14/09/2004 09:32:00.1 [SBP01   ] Fix32.thisnode.name204.A_CV set to Mst 2  mido by SC4BP01::BATCH RECIPE                            
14/09/2004 09:32:08.9 SC4BP01 SECURITY VIOLATION: BATCH RECIPE access to APPLICATION FEATURE System User Login                      
14/09/2004 09:32:10.1 BATCH RECIPE  logged out as Application User                                                                  
14/09/2004 09:32:12.7 PRODUCTION ENGINEERS  logged in as Application User                                                           
14/09/2004 09:32:19.4 [SBP01   ] S9_ALARM_WORD ALARM is acknowledged by SC4BP01::PRODUCTION ENGINEERS                               
14/09/2004 09:32:19.4 [SBP01   ] S9_ALARM_WORD ALARM is acknowledged by SC4BP01::PRODUCTION ENGINEERS                               
14/09/2004 09:32:29.5 [SCE01   ] CE_M604_SQ6_SAFETY_INDEXATION  OK               OPEN      CE M604 SQ6 SAFETY INDEXATION           
14/09/2004 09:32:45.0 [SCE01   ] CE_M604_SQ6_SAFETY_INDEXATION  OK               OPEN      CE M604 SQ6 SAFETY INDEXATION           
14/09/2004 09:33:18.0 [SCE01   ] Fix32.SCE01.CUT_LB1_CUTTER2_PRESSURE.F_CV set to 1280 by WC4CE04::COLD END OPERATOR                
14/09/2004 09:33:13.6 [SBP01   ] S10_SILO_REFILL_LEVEL_SETPOINT                    50      S10 silo refill level setpoint          
14/09/2004 09:33:21.7 [SCE01   ] Fix32.SCE01.CUT_LB1_CUTTER4_PRESSURE.F_CV set to 1280 by WC4CE04::COLD END OPERATOR                
14/09/2004 09:33:13.6 [SBP01   ] Fix32.SBP01.S10_SILO_REFILL_LEVEL_SETPOINT.F_CV set to 50 by SC4BP01::PRODUCTION ENGINEERS         
14/09/2004 09:33:30.5 [SBP01   ] Fix32.SBP01.S10_ALARM_WORD.F_CV set to 0 by SC4BP01::PRODUCTION ENGINEERS                          
14/09/2004 09:33:39.8 [SCE01   ] Fix32.SCE01.CUT_LB1_CUTTER2_PRESSURE.F_CV set to 1250 by WC4CE04::COLD END OPERATOR                
14/09/2004 09:33:45.0 [SCE01   ] Fix32.SCE01.CUT_LB1_CUTTER4_PRESSURE.F_CV set to 1250 by WC4CE04::COLD END OPERATOR                
14/09/2004 09:33:48.1 [SBP01   ] Fix32.sbp01.matedit01_locked.f_cv set to  21167 by SC4BP01::PRODUCTION ENGINEERS                   
"14/09/2004 09:33:48.6 [SBP01   ] MATEDIT01_READ                                     4      Mat index, PC write                     "
14/09/2004 09:33:48.6 [SBP01   ] Fix32.sbp01.matedit01_read.f_cv set to  4 by SC4BP01::PRODUCTION ENGINEERS                         
14/09/2004 09:33:48.6 [SBP01   ] Fix32.sbp01.MATedit01_edit.f_cv set to 0 by SC4BP01::PRODUCTION ENGINEERS                          
14/09/2004 09:33:49.7 [SBP01   ] Fix32.sbp01.MATEDIT01_locked.f_cv set to 0 by SC4BP01::PRODUCTION ENGINEERS                        
14/09/2004 09:33:52.9 [SBP01   ] S10_ALARM_WORD ALARM is acknowledged by SC4BP01::PRODUCTION ENGINEERS                              
14/09/2004 09:33:52.9 [SBP01   ] S10_ALARM_WORD ALARM is acknowledged by SC4BP01::PRODUCTION ENGINEERS                              
14/09/2004 09:34:02.0 [SBP01   ] Fix32.SBP01.S2_ALARM_WORD.F_CV set to 0 by SC4BP01::PRODUCTION ENGINEERS                           
14/09/2004 09:34:13.6 [SCE01   ] Fix32.SCE01.CUT_LB2_CUTTER2_PRESSURE.F_CV set to 1300 by WC4CE04::COLD END OPERATOR                
14/09/2004 09:34:17.0 [SCE01   ] Fix32.SCE01.CUT_LB2_CUTTER4_PRESSURE.F_CV set to 1300 by WC4CE04::COLD END OPERATOR                
14/09/2004 09:34:17.6 [SBP01   ] Fix32.sbp01.alltime1.f_cv set to 1 by SC4BP01::PRODUCTION ENGINEERS                                
14/09/2004 09:34:28.5 [SCE01   ] CE_M504_ANM_TIMEOUT_VACUUM     CFN             CLOSE      CE M504 TIME OUT VACUUM                 
14/09/2004 09:34:44.0 [SCE01   ] CE_M504_ANM_TIMEOUT_VACUUM     CFN             CLOSE      CE M504 TIME OUT VACUUM                 
14/09/2004 09:34:39.5 [SCE01   ] CE_M504_ANM_TIMEOUT_VACUUM     OK               OPEN      CE M504 TIME OUT VACUUM                 
14/09/2004 09:34:56.0 [SCE01   ] CE_M504_ANM_TIMEOUT_VACUUM     OK               OPEN      CE M504 TIME OUT VACUUM                 
14/09/2004 09:34:45.7 [SCE01   ] CE_M504_ANM_TIMEOUT_VACUUM ALARM is acknowledged by WC4CE01::COLD END OPERATOR                     
14/09/2004 09:34:45.9 [SCE01   ] CE_M504_ANM_TIMEOUT_VACUUM ALARM is acknowledged by WC4CE01::COLD END OPERATOR                     
14/09/2004 09:35:59.8 [SBP01   ] Fix32.thisnode.name1.A_CV set to Areia 1 by SC4BP01::PRODUCTION ENGINEERS                          
14/09/2004 09:35:59.8 [SBP01   ] Fix32.thisnode.name2.A_CV set to Areia 2 by SC4BP01::PRODUCTION ENGINEERS                          
14/09/2004 09:35:59.8 [SBP01   ] Fix32.thisnode.name3.A_CV set to Dolomita by SC4BP01::PRODUCTION ENGINEERS                         
14/09/2004 09:35:59.8 [SBP01   ] Fix32.thisnode.name4.A_CV set to Calcario by SC4BP01::PRODUCTION ENGINEERS                         
14/09/2004 09:35:59.9 [SBP01   ] Fix32.thisnode.name5.A_CV set to Reserva by SC4BP01::PRODUCTION ENGINEERS                          
14/09/2004 09:35:59.9 [SBP01   ] Fix32.thisnode.name6.A_CV set to Barrilha by SC4BP01::PRODUCTION ENGINEERS                         
14/09/2004 09:35:59.9 [SBP01   ] Fix32.thisnode.name7.A_CV set to Feldspato by SC4BP01::PRODUCTION ENGINEERS                        
14/09/2004 09:35:59.9 [SBP01   ] Fix32.thisnode.name8.A_CV set to Sulfato by SC4BP01::PRODUCTION ENGINEERS                          
14/09/2004 09:35:59.9 [SBP01   ] Fix32.thisnode.name9.A_CV set to Po de EP by SC4BP01::PRODUCTION ENGINEERS                         
14/09/2004 09:36:00.0 [SBP01   ] Fix32.thisnode.name10.A_CV set to Grafite by SC4BP01::PRODUCTION ENGINEERS                         
14/09/2004 09:36:00.0 [SBP01   ] Fix32.thisnode.name11.A_CV set to Ferro by SC4BP01::PRODUCTION ENGINEERS                           
14/09/2004 09:36:00.0 [SBP01   ] Fix32.thisnode.name12.A_CV set to Nitrato by SC4BP01::PRODUCTION ENGINEERS                         
14/09/2004 09:36:00.0 [SBP01   ] Fix32.thisnode.name14.A_CV set to Selenio by SC4BP01::PRODUCTION ENGINEERS                         
14/09/2004 09:36:00.1 [SBP01   ] Fix32.thisnode.name15.A_CV set to Cobalto by SC4BP01::PRODUCTION ENGINEERS                         
14/09/2004 09:36:00.1 [SBP01   ] Fix32.thisnode.name16.A_CV set to Ferro by SC4BP01::PRODUCTION ENGINEERS                           
14/09/2004 09:36:00.1 [SBP01   ] Fix32.thisnode.name20.A_CV set to Caco by SC4BP01::PRODUCTION ENGINEERS                            
14/09/2004 09:36:00.2 [SBP01   ] Fix32.thisnode.name50.A_CV set to  gua by SC4BP01::PRODUCTION ENGINEERS                            
14/09/2004 09:36:00.2 [SBP01   ] Fix32.thisnode.name51.A_CV set to Vapor by SC4BP01::PRODUCTION ENGINEERS                           
14/09/2004 09:36:00.2 [SBP01   ] Fix32.thisnode.name201.A_CV set to Mst 1 seco by SC4BP01::PRODUCTION ENGINEERS                     
14/09/2004 09:36:00.3 [SBP01   ] Fix32.thisnode.name202.A_CV set to Mst 2 seco by SC4BP01::PRODUCTION ENGINEERS                     
14/09/2004 09:36:00.3 [SBP01   ] Fix32.thisnode.name203.A_CV set to Mst 1  mido by SC4BP01::PRODUCTION ENGINEERS                    
14/09/2004 09:36:00.3 [SBP01   ] Fix32.thisnode.name204.A_CV set to Mst 2  mido by SC4BP01::PRODUCTION ENGINEERS                    
14/09/2004 09:36:55.4 [SCE01   ] Fix32.SCE01.PAT07_LIN_ENAB.F_CV set to 0 by WC4CE01::COLD END OPERATOR                             
14/09/2004 09:36:58.3 [SCE01   ] Fix32.SCE01.PAT08_LIN_ENAB.F_CV set to 0 by WC4CE01::COLD END OPERATOR                             
14/09/2004 09:37:13.0 Login Timed Out of Application User PRODUCTION ENGINEERS                                                      
14/09/2004 09:38:43.9 [SCE01   ] Fix32.SCE01.CUT_LB1_CUTTER2_PRESSURE.F_CV set to 1300 by WC4CE04::COLD END OPERATOR                
14/09/2004 09:40:00.1 [SBP01   ] Fix32.thisnode.name1.A_CV set to Areia 1 by SC4BP01                                                
14/09/2004 09:40:00.1 [SBP01   ] Fix32.thisnode.name2.A_CV set to Areia 2 by SC4BP01                                                
14/09/2004 09:40:00.2 [SBP01   ] Fix32.thisnode.name3.A_CV set to Dolomita by SC4BP01                                               
14/09/2004 09:40:00.2 [SBP01   ] Fix32.thisnode.name4.A_CV set to Calcario by SC4BP01                                               
14/09/2004 09:40:00.2 [SBP01   ] Fix32.thisnode.name5.A_CV set to Reserva by SC4BP01                                                
14/09/2004 09:40:00.2 [SBP01   ] Fix32.thisnode.name6.A_CV set to Barrilha by SC4BP01                                               
14/09/2004 09:40:00.2 [SBP01   ] Fix32.thisnode.name7.A_CV set to Feldspato by SC4BP01                                              
14/09/2004 09:40:00.2 [SBP01   ] Fix32.thisnode.name8.A_CV set to Sulfato by SC4BP01                                                
14/09/2004 09:40:00.2 [SBP01   ] Fix32.thisnode.name9.A_CV set to Po de EP by SC4BP01                                               
14/09/2004 09:40:00.3 [SBP01   ] Fix32.thisnode.name10.A_CV set to Grafite by SC4BP01                                               
14/09/2004 09:40:00.3 [SBP01   ] Fix32.thisnode.name11.A_CV set to Ferro by SC4BP01                                                 
14/09/2004 09:40:00.3 [SBP01   ] Fix32.thisnode.name12.A_CV set to Nitrato by SC4BP01                                               
14/09/2004 09:40:00.3 [SBP01   ] Fix32.thisnode.name14.A_CV set to Selenio by SC4BP01                                               
14/09/2004 09:40:00.3 [SBP01   ] Fix32.thisnode.name15.A_CV set to Cobalto by SC4BP01                                               
14/09/2004 09:40:00.3 [SBP01   ] Fix32.thisnode.name16.A_CV set to Ferro by SC4BP01                                                 
14/09/2004 09:40:00.3 [SBP01   ] Fix32.thisnode.name20.A_CV set to Caco by SC4BP01                                                  
14/09/2004 09:40:00.3 [SBP01   ] Fix32.thisnode.name50.A_CV set to  gua by SC4BP01                                                  
14/09/2004 09:40:00.4 [SBP01   ] Fix32.thisnode.name51.A_CV set to Vapor by SC4BP01                                                 
14/09/2004 09:40:00.4 [SBP01   ] Fix32.thisnode.name201.A_CV set to Mst 1 seco by SC4BP01                                           
14/09/2004 09:40:00.4 [SBP01   ] Fix32.thisnode.name202.A_CV set to Mst 2 seco by SC4BP01                                           
14/09/2004 09:40:00.4 [SBP01   ] Fix32.thisnode.name203.A_CV set to Mst 1  mido by SC4BP01                                          
14/09/2004 09:40:00.4 [SBP01   ] Fix32.thisnode.name204.A_CV set to Mst 2  mido by SC4BP01                                          
14/09/2004 09:40:40.2 [SCE01   ] Fix32.SCE01.PAT01_LIN_ENAB.F_CV set to 0 by WC4CE02::COLD END OPERATOR                             
