14/09/2004 12:00:00.5 [SBP01   ] Fix32.thisnode.name1.A_CV set to Areia 1 by SC4BP01::BATCH PLANT OPERATOR                          
14/09/2004 12:00:00.5 [SBP01   ] Fix32.thisnode.name2.A_CV set to Areia 2 by SC4BP01::BATCH PLANT OPERATOR                          
14/09/2004 12:00:00.5 [SBP01   ] Fix32.thisnode.name3.A_CV set to Dolomita by SC4BP01::BATCH PLANT OPERATOR                         
14/09/2004 12:00:00.5 [SBP01   ] Fix32.thisnode.name4.A_CV set to Calcario by SC4BP01::BATCH PLANT OPERATOR                         
14/09/2004 12:00:00.6 [SBP01   ] Fix32.thisnode.name5.A_CV set to Reserva by SC4BP01::BATCH PLANT OPERATOR                          
14/09/2004 12:00:00.6 [SBP01   ] Fix32.thisnode.name6.A_CV set to Barrilha by SC4BP01::BATCH PLANT OPERATOR                         
14/09/2004 12:00:00.6 [SBP01   ] Fix32.thisnode.name7.A_CV set to Feldspato by SC4BP01::BATCH PLANT OPERATOR                        
14/09/2004 12:00:00.6 [SBP01   ] Fix32.thisnode.name8.A_CV set to Sulfato by SC4BP01::BATCH PLANT OPERATOR                          
14/09/2004 12:00:00.6 [SBP01   ] Fix32.thisnode.name9.A_CV set to Po de EP by SC4BP01::BATCH PLANT OPERATOR                         
14/09/2004 12:00:00.7 [SBP01   ] Fix32.thisnode.name10.A_CV set to Grafite by SC4BP01::BATCH PLANT OPERATOR                         
14/09/2004 12:00:00.7 [SBP01   ] Fix32.thisnode.name11.A_CV set to Ferro by SC4BP01::BATCH PLANT OPERATOR                           
14/09/2004 12:00:00.7 [SBP01   ] Fix32.thisnode.name12.A_CV set to Nitrato by SC4BP01::BATCH PLANT OPERATOR                         
14/09/2004 12:00:00.7 [SBP01   ] Fix32.thisnode.name14.A_CV set to Selenio by SC4BP01::BATCH PLANT OPERATOR                         
14/09/2004 12:00:00.8 [SBP01   ] Fix32.thisnode.name15.A_CV set to Cobalto by SC4BP01::BATCH PLANT OPERATOR                         
14/09/2004 12:00:00.8 [SBP01   ] Fix32.thisnode.name16.A_CV set to Ferro by SC4BP01::BATCH PLANT OPERATOR                           
14/09/2004 12:00:00.8 [SBP01   ] Fix32.thisnode.name20.A_CV set to Caco by SC4BP01::BATCH PLANT OPERATOR                            
14/09/2004 12:00:00.8 [SBP01   ] Fix32.thisnode.name50.A_CV set to  gua by SC4BP01::BATCH PLANT OPERATOR                            
14/09/2004 12:00:00.8 [SBP01   ] Fix32.thisnode.name51.A_CV set to Vapor by SC4BP01::BATCH PLANT OPERATOR                           
14/09/2004 12:00:00.8 [SBP01   ] Fix32.thisnode.name201.A_CV set to Mst 1 seco by SC4BP01::BATCH PLANT OPERATOR                     
14/09/2004 12:00:00.8 [SBP01   ] Fix32.thisnode.name202.A_CV set to Mst 2 seco by SC4BP01::BATCH PLANT OPERATOR                     
14/09/2004 12:00:00.9 [SBP01   ] Fix32.thisnode.name203.A_CV set to Mst 1  mido by SC4BP01::BATCH PLANT OPERATOR                    
14/09/2004 12:00:00.9 [SBP01   ] Fix32.thisnode.name204.A_CV set to Mst 2  mido by SC4BP01::BATCH PLANT OPERATOR                    
14/09/2004 12:03:20.3 [SBP01   ] PCU1_2_ALARM_02 ALARM is acknowledged by WC4BP01::BATCH PLANT OPERATOR                             
14/09/2004 12:03:20.4 [SBP01   ] Fix32.SBP01.PCU1_2_ALARM_02.F_CV set to 0 by WC4BP01::BATCH PLANT OPERATOR                         
14/09/2004 12:03:23.4 [SBP01   ] Fix32.SBP01.PCU1_2_ALARM_WORD.F_CV set to 0 by WC4BP01::BATCH PLANT OPERATOR                       
14/09/2004 12:03:23.9 [SBP01   ] PCU1_2_ALARM_WORD ALARM is acknowledged by WC4BP01::BATCH PLANT OPERATOR                           
14/09/2004 12:04:00.0 [SBP01   ] Fix32.thisnode.name1.A_CV set to Areia 1 by SC4BP01::BATCH PLANT OPERATOR                          
14/09/2004 12:04:00.0 [SBP01   ] Fix32.thisnode.name2.A_CV set to Areia 2 by SC4BP01::BATCH PLANT OPERATOR                          
14/09/2004 12:04:00.0 [SBP01   ] Fix32.thisnode.name3.A_CV set to Dolomita by SC4BP01::BATCH PLANT OPERATOR                         
14/09/2004 12:04:00.0 [SBP01   ] Fix32.thisnode.name4.A_CV set to Calcario by SC4BP01::BATCH PLANT OPERATOR                         
14/09/2004 12:04:00.0 [SBP01   ] Fix32.thisnode.name5.A_CV set to Reserva by SC4BP01::BATCH PLANT OPERATOR                          
14/09/2004 12:04:00.1 [SBP01   ] Fix32.thisnode.name6.A_CV set to Barrilha by SC4BP01::BATCH PLANT OPERATOR                         
14/09/2004 12:04:00.1 [SBP01   ] Fix32.thisnode.name7.A_CV set to Feldspato by SC4BP01::BATCH PLANT OPERATOR                        
14/09/2004 12:04:00.1 [SBP01   ] Fix32.thisnode.name8.A_CV set to Sulfato by SC4BP01::BATCH PLANT OPERATOR                          
14/09/2004 12:04:00.1 [SBP01   ] Fix32.thisnode.name9.A_CV set to Po de EP by SC4BP01::BATCH PLANT OPERATOR                         
14/09/2004 12:04:00.1 [SBP01   ] Fix32.thisnode.name10.A_CV set to Grafite by SC4BP01::BATCH PLANT OPERATOR                         
14/09/2004 12:04:00.1 [SBP01   ] Fix32.thisnode.name11.A_CV set to Ferro by SC4BP01::BATCH PLANT OPERATOR                           
14/09/2004 12:04:00.2 [SBP01   ] Fix32.thisnode.name12.A_CV set to Nitrato by SC4BP01::BATCH PLANT OPERATOR                         
14/09/2004 12:04:00.2 [SBP01   ] Fix32.thisnode.name14.A_CV set to Selenio by SC4BP01::BATCH PLANT OPERATOR                         
14/09/2004 12:04:00.2 [SBP01   ] Fix32.thisnode.name15.A_CV set to Cobalto by SC4BP01::BATCH PLANT OPERATOR                         
14/09/2004 12:04:00.2 [SBP01   ] Fix32.thisnode.name16.A_CV set to Ferro by SC4BP01::BATCH PLANT OPERATOR                           
14/09/2004 12:04:00.2 [SBP01   ] Fix32.thisnode.name20.A_CV set to Caco by SC4BP01::BATCH PLANT OPERATOR                            
14/09/2004 12:04:00.3 [SBP01   ] Fix32.thisnode.name50.A_CV set to  gua by SC4BP01::BATCH PLANT OPERATOR                            
14/09/2004 12:04:00.3 [SBP01   ] Fix32.thisnode.name51.A_CV set to Vapor by SC4BP01::BATCH PLANT OPERATOR                           
14/09/2004 12:04:00.3 [SBP01   ] Fix32.thisnode.name201.A_CV set to Mst 1 seco by SC4BP01::BATCH PLANT OPERATOR                     
14/09/2004 12:04:00.3 [SBP01   ] Fix32.thisnode.name202.A_CV set to Mst 2 seco by SC4BP01::BATCH PLANT OPERATOR                     
14/09/2004 12:04:00.3 [SBP01   ] Fix32.thisnode.name203.A_CV set to Mst 1  mido by SC4BP01::BATCH PLANT OPERATOR                    
14/09/2004 12:04:00.3 [SBP01   ] Fix32.thisnode.name204.A_CV set to Mst 2  mido by SC4BP01::BATCH PLANT OPERATOR                    
14/09/2004 12:05:05.3 [SBP01   ] Fix32.sbp01.alltime1.f_cv set to 1 by WC4BP01::BATCH PLANT OPERATOR                                
14/09/2004 12:05:18.0 [SBP01   ] BC4_AUTO_SCAN_INTERVAL                             5      Bc4 auto scan interval                  
14/09/2004 12:05:17.9 [SBP01   ] Fix32.SBP01.bc4_auto_scan_interval.F_CV set to 5 by WC4BP01::BATCH PLANT OPERATOR                  
14/09/2004 12:05:26.0 [SBP01   ] BC4_AUTO_SCAN_INTERVAL                             3      Bc4 auto scan interval                  
14/09/2004 12:05:25.9 [SBP01   ] Fix32.SBP01.bc4_auto_scan_interval.F_CV set to 3 by WC4BP01::BATCH PLANT OPERATOR                  
14/09/2004 12:05:44.5 [SBP01   ] S20_ALARM_03 ALARM is acknowledged by WC4BP01::BATCH PLANT OPERATOR                                
14/09/2004 12:05:44.6 [SBP01   ] S20_ALARM_03 ALARM is acknowledged by WC4BP01::BATCH PLANT OPERATOR                                
14/09/2004 12:05:45.4 [SBP01   ] FURNACE_HOPPER_ALARM_WORD ALARM is acknowledged by WC4BP01::BATCH PLANT OPERATOR                   
14/09/2004 12:05:45.5 [SBP01   ] FURNACE_HOPPER_ALARM_WORD ALARM is acknowledged by WC4BP01::BATCH PLANT OPERATOR                   
14/09/2004 12:05:46.2 [SBP01   ] FURNACE_HOPPER_ALARM_02 ALARM is acknowledged by WC4BP01::BATCH PLANT OPERATOR                     
14/09/2004 12:05:46.3 [SBP01   ] FURNACE_HOPPER_ALARM_02 ALARM is acknowledged by WC4BP01::BATCH PLANT OPERATOR                     
14/09/2004 12:05:47.3 [SBP01   ] S1_ALARM_04 ALARM is acknowledged by WC4BP01::BATCH PLANT OPERATOR                                 
14/09/2004 12:05:47.4 [SBP01   ] S1_ALARM_04 ALARM is acknowledged by WC4BP01::BATCH PLANT OPERATOR                                 
14/09/2004 12:05:48.3 [SBP01   ] S20_ALARM_WORD ALARM is acknowledged by WC4BP01::BATCH PLANT OPERATOR                              
14/09/2004 12:05:48.4 [SBP01   ] S20_ALARM_WORD ALARM is acknowledged by WC4BP01::BATCH PLANT OPERATOR                              
14/09/2004 12:05:48.7 [SBP01   ] S1_ALARM_WORD ALARM is acknowledged by WC4BP01::BATCH PLANT OPERATOR                               
14/09/2004 12:05:48.8 [SBP01   ] S1_ALARM_WORD ALARM is acknowledged by WC4BP01::BATCH PLANT OPERATOR                               
14/09/2004 12:05:49.4 [SBP01   ] PCU1_1_ALARM_07 ALARM is acknowledged by WC4BP01::BATCH PLANT OPERATOR                             
14/09/2004 12:05:49.9 [SBP01   ] PCU1_1_ALARM_WORD ALARM is acknowledged by WC4BP01::BATCH PLANT OPERATOR                           
14/09/2004 12:05:50.0 [SBP01   ] PCU1_1_ALARM_WORD ALARM is acknowledged by WC4BP01::BATCH PLANT OPERATOR                           
14/09/2004 12:05:55.0 [SBP01   ] Fix32.SBP01.Furnace_hopper_ALARM_02.F_CV set to 0 by WC4BP01::BATCH PLANT OPERATOR                 
14/09/2004 12:05:59.5 [SBP01   ] Fix32.SBP01.Furnace_hopper_ALARM_WORD.F_CV set to 0 by WC4BP01::BATCH PLANT OPERATOR               
14/09/2004 12:08:00.0 [SBP01   ] Fix32.thisnode.name1.A_CV set to Areia 1 by SC4BP01::BATCH PLANT OPERATOR                          
14/09/2004 12:08:00.0 [SBP01   ] Fix32.thisnode.name2.A_CV set to Areia 2 by SC4BP01::BATCH PLANT OPERATOR                          
14/09/2004 12:08:00.0 [SBP01   ] Fix32.thisnode.name3.A_CV set to Dolomita by SC4BP01::BATCH PLANT OPERATOR                         
14/09/2004 12:08:00.0 [SBP01   ] Fix32.thisnode.name4.A_CV set to Calcario by SC4BP01::BATCH PLANT OPERATOR                         
14/09/2004 12:08:00.0 [SBP01   ] Fix32.thisnode.name5.A_CV set to Reserva by SC4BP01::BATCH PLANT OPERATOR                          
14/09/2004 12:08:00.0 [SBP01   ] Fix32.thisnode.name6.A_CV set to Barrilha by SC4BP01::BATCH PLANT OPERATOR                         
14/09/2004 12:08:00.1 [SBP01   ] Fix32.thisnode.name7.A_CV set to Feldspato by SC4BP01::BATCH PLANT OPERATOR                        
14/09/2004 12:08:00.1 [SBP01   ] Fix32.thisnode.name8.A_CV set to Sulfato by SC4BP01::BATCH PLANT OPERATOR                          
14/09/2004 12:08:00.1 [SBP01   ] Fix32.thisnode.name9.A_CV set to Po de EP by SC4BP01::BATCH PLANT OPERATOR                         
14/09/2004 12:08:00.1 [SBP01   ] Fix32.thisnode.name10.A_CV set to Grafite by SC4BP01::BATCH PLANT OPERATOR                         
14/09/2004 12:08:00.1 [SBP01   ] Fix32.thisnode.name11.A_CV set to Ferro by SC4BP01::BATCH PLANT OPERATOR                           
14/09/2004 12:08:00.1 [SBP01   ] Fix32.thisnode.name12.A_CV set to Nitrato by SC4BP01::BATCH PLANT OPERATOR                         
14/09/2004 12:08:00.1 [SBP01   ] Fix32.thisnode.name14.A_CV set to Selenio by SC4BP01::BATCH PLANT OPERATOR                         
14/09/2004 12:08:00.2 [SBP01   ] Fix32.thisnode.name15.A_CV set to Cobalto by SC4BP01::BATCH PLANT OPERATOR                         
14/09/2004 12:08:00.2 [SBP01   ] Fix32.thisnode.name16.A_CV set to Ferro by SC4BP01::BATCH PLANT OPERATOR                           
14/09/2004 12:08:00.2 [SBP01   ] Fix32.thisnode.name20.A_CV set to Caco by SC4BP01::BATCH PLANT OPERATOR                            
14/09/2004 12:08:00.2 [SBP01   ] Fix32.thisnode.name50.A_CV set to  gua by SC4BP01::BATCH PLANT OPERATOR                            
14/09/2004 12:08:00.2 [SBP01   ] Fix32.thisnode.name51.A_CV set to Vapor by SC4BP01::BATCH PLANT OPERATOR                           
14/09/2004 12:08:00.3 [SBP01   ] Fix32.thisnode.name201.A_CV set to Mst 1 seco by SC4BP01::BATCH PLANT OPERATOR                     
14/09/2004 12:08:00.3 [SBP01   ] Fix32.thisnode.name202.A_CV set to Mst 2 seco by SC4BP01::BATCH PLANT OPERATOR                     
14/09/2004 12:08:00.3 [SBP01   ] Fix32.thisnode.name203.A_CV set to Mst 1  mido by SC4BP01::BATCH PLANT OPERATOR                    
14/09/2004 12:08:00.3 [SBP01   ] Fix32.thisnode.name204.A_CV set to Mst 2  mido by SC4BP01::BATCH PLANT OPERATOR                    
14/09/2004 12:11:02.0 [SBP01   ] Fix32.SBP01.Furnace_hopper_ALARM_WORD.F_CV set to 0 by WC4BP01::BATCH PLANT OPERATOR               
14/09/2004 12:11:55.6 [SCE01   ] Fix32.SCE01.PAT15_FECR_L.F_CV set to 1 by WC4CE02::COLD END OPERATOR                               
14/09/2004 12:11:56.4 [SCE01   ] Fix32.SCE01.PAT15_FECR_R.F_CV set to 1 by WC4CE02::COLD END OPERATOR                               
14/09/2004 12:11:59.4 [SCE01   ] Fix32.SCE01.PAT15_RASP.F_CV set to 1 by WC4CE02::COLD END OPERATOR                                 
14/09/2004 12:12:00.0 [SBP01   ] Fix32.thisnode.name1.A_CV set to Areia 1 by SC4BP01::BATCH PLANT OPERATOR                          
14/09/2004 12:12:00.0 [SBP01   ] Fix32.thisnode.name2.A_CV set to Areia 2 by SC4BP01::BATCH PLANT OPERATOR                          
14/09/2004 12:12:00.0 [SBP01   ] Fix32.thisnode.name3.A_CV set to Dolomita by SC4BP01::BATCH PLANT OPERATOR                         
14/09/2004 12:12:00.1 [SBP01   ] Fix32.thisnode.name4.A_CV set to Calcario by SC4BP01::BATCH PLANT OPERATOR                         
14/09/2004 12:12:00.1 [SBP01   ] Fix32.thisnode.name5.A_CV set to Reserva by SC4BP01::BATCH PLANT OPERATOR                          
14/09/2004 12:12:00.1 [SBP01   ] Fix32.thisnode.name6.A_CV set to Barrilha by SC4BP01::BATCH PLANT OPERATOR                         
14/09/2004 12:12:00.2 [SBP01   ] Fix32.thisnode.name7.A_CV set to Feldspato by SC4BP01::BATCH PLANT OPERATOR                        
14/09/2004 12:12:00.2 [SBP01   ] Fix32.thisnode.name8.A_CV set to Sulfato by SC4BP01::BATCH PLANT OPERATOR                          
14/09/2004 12:12:00.2 [SBP01   ] Fix32.thisnode.name9.A_CV set to Po de EP by SC4BP01::BATCH PLANT OPERATOR                         
14/09/2004 12:12:00.2 [SBP01   ] Fix32.thisnode.name10.A_CV set to Grafite by SC4BP01::BATCH PLANT OPERATOR                         
14/09/2004 12:12:00.2 [SBP01   ] Fix32.thisnode.name11.A_CV set to Ferro by SC4BP01::BATCH PLANT OPERATOR                           
14/09/2004 12:12:00.3 [SBP01   ] Fix32.thisnode.name12.A_CV set to Nitrato by SC4BP01::BATCH PLANT OPERATOR                         
14/09/2004 12:12:00.3 [SBP01   ] Fix32.thisnode.name14.A_CV set to Selenio by SC4BP01::BATCH PLANT OPERATOR                         
14/09/2004 12:12:00.3 [SBP01   ] Fix32.thisnode.name15.A_CV set to Cobalto by SC4BP01::BATCH PLANT OPERATOR                         
14/09/2004 12:12:00.3 [SBP01   ] Fix32.thisnode.name16.A_CV set to Ferro by SC4BP01::BATCH PLANT OPERATOR                           
14/09/2004 12:12:00.3 [SBP01   ] Fix32.thisnode.name20.A_CV set to Caco by SC4BP01::BATCH PLANT OPERATOR                            
14/09/2004 12:12:00.4 [SBP01   ] Fix32.thisnode.name50.A_CV set to  gua by SC4BP01::BATCH PLANT OPERATOR                            
14/09/2004 12:12:00.4 [SBP01   ] Fix32.thisnode.name51.A_CV set to Vapor by SC4BP01::BATCH PLANT OPERATOR                           
14/09/2004 12:12:00.4 [SBP01   ] Fix32.thisnode.name201.A_CV set to Mst 1 seco by SC4BP01::BATCH PLANT OPERATOR                     
14/09/2004 12:12:00.4 [SBP01   ] Fix32.thisnode.name202.A_CV set to Mst 2 seco by SC4BP01::BATCH PLANT OPERATOR                     
14/09/2004 12:12:00.4 [SBP01   ] Fix32.thisnode.name203.A_CV set to Mst 1  mido by SC4BP01::BATCH PLANT OPERATOR                    
14/09/2004 12:12:00.4 [SBP01   ] Fix32.thisnode.name204.A_CV set to Mst 2  mido by SC4BP01::BATCH PLANT OPERATOR                    
14/09/2004 12:12:33.8 [SCE01   ] CE_M322_AN_TOUT_LOAD_CYCLE     CFN             CLOSE      CE M322 TIME OUT LOAD CYCLE             
14/09/2004 12:12:26.9 [SCE01   ] CE_M322_AN_TOUT_LOAD_CYCLE     CFN             CLOSE      CE M322 TIME OUT LOAD CYCLE             
14/09/2004 12:13:05.8 [SCE01   ] CE_M326_AN_TOUT_LOAD_CYCLE     CFN             CLOSE      CE M326 TIME OUT LOAD CYCLE             
14/09/2004 12:12:58.9 [SCE01   ] CE_M326_AN_TOUT_LOAD_CYCLE     CFN             CLOSE      CE M326 TIME OUT LOAD CYCLE             
14/09/2004 12:13:05.6 [SCE01   ] Fix32.SCE01.Z303_4_ANOMALY_RESET.F_CV set to 1 by WC4CE01::COLD END OPERATOR                       
14/09/2004 12:13:11.8 [SCE01   ] CE_M326_AN_TOUT_LOAD_CYCLE     OK               OPEN      CE M326 TIME OUT LOAD CYCLE             
14/09/2004 12:13:06.1 [SCE01   ] Fix32.SCE01.Z303_4_ANOMALY_RESET.F_CV set to 1 by WC4CE01::COLD END OPERATOR                       
14/09/2004 12:13:06.6 [SCE01   ] Fix32.SCE01.Z303_4_ANOMALY_RESET.F_CV set to 1 by WC4CE01::COLD END OPERATOR                       
14/09/2004 12:13:05.9 [SCE01   ] CE_M326_AN_TOUT_LOAD_CYCLE     OK               OPEN      CE M326 TIME OUT LOAD CYCLE             
14/09/2004 12:13:12.9 [SCE01   ] Fix32.SCE01.Z303_3_ANOMALY_RESET.F_CV set to 1 by WC4CE01::COLD END OPERATOR                       
14/09/2004 12:13:19.8 [SCE01   ] CE_M322_AN_TOUT_LOAD_CYCLE     OK               OPEN      CE M322 TIME OUT LOAD CYCLE             
14/09/2004 12:13:13.4 [SCE01   ] Fix32.SCE01.Z303_3_ANOMALY_RESET.F_CV set to 1 by WC4CE01::COLD END OPERATOR                       
14/09/2004 12:13:13.9 [SCE01   ] CE_M322_AN_TOUT_LOAD_CYCLE     OK               OPEN      CE M322 TIME OUT LOAD CYCLE             
14/09/2004 12:13:27.1 [SCE01   ] Fix32.SCE01.Z303_3_4_WR_CLEAN_MACHINE.F_CV set to 319 by WC4CE01::COLD END OPERATOR                
14/09/2004 12:13:34.5 [SCE01   ] Fix32.SCE01.Z303_3_4_WR_CLEAN_MACHINE.F_CV set to 326 by WC4CE01::COLD END OPERATOR                
14/09/2004 12:13:38.2 [SCE01   ] Fix32.SCE01.Z303_3_CLEAN_REQUEST.F_CV set to 1 by WC4CE01::COLD END OPERATOR                       
14/09/2004 12:13:39.8 [SBP01   ] FURNACE_HOPPER_ALARM_WORD ALARM is acknowledged by WC4BP01::BATCH PLANT OPERATOR                   
14/09/2004 12:13:39.9 [SBP01   ] FURNACE_HOPPER_ALARM_WORD ALARM is acknowledged by WC4BP01::BATCH PLANT OPERATOR                   
14/09/2004 12:13:48.1 [SCE01   ] Fix32.SCE01.Z303_3_CLEAN_STOP.F_CV set to 1 by WC4CE01::COLD END OPERATOR                          
14/09/2004 12:14:12.7 [SCE01   ] CE_M326_AN_TOUT_LOAD_CYCLE     CFN             CLOSE      CE M326 TIME OUT LOAD CYCLE             
14/09/2004 12:14:05.9 [SCE01   ] CE_M326_AN_TOUT_LOAD_CYCLE     CFN             CLOSE      CE M326 TIME OUT LOAD CYCLE             
14/09/2004 12:14:14.1 [SCE01   ] Fix32.SCE01.Z303_4_ANOMALY_RESET.F_CV set to 1 by WC4CE01::COLD END OPERATOR                       
14/09/2004 12:14:20.8 [SCE01   ] CE_M326_AN_TOUT_LOAD_CYCLE     OK               OPEN      CE M326 TIME OUT LOAD CYCLE             
14/09/2004 12:14:12.9 [SCE01   ] CE_M326_AN_TOUT_LOAD_CYCLE     OK               OPEN      CE M326 TIME OUT LOAD CYCLE             
14/09/2004 12:14:54.9 [SCE01   ] CE_M326_AN_TOUT_LOAD_CYCLE     CFN             CLOSE      CE M326 TIME OUT LOAD CYCLE             
14/09/2004 12:15:02.7 [SCE01   ] CE_M326_AN_TOUT_LOAD_CYCLE     CFN             CLOSE      CE M326 TIME OUT LOAD CYCLE             
14/09/2004 12:15:02.1 [SCE01   ] CE_M326_AN_TOUT_LOAD_CYCLE ALARM is acknowledged by WC4CE01::COLD END OPERATOR                     
14/09/2004 12:15:02.3 [SCE01   ] CE_M326_AN_TOUT_LOAD_CYCLE ALARM is acknowledged by WC4CE01::COLD END OPERATOR                     
14/09/2004 12:15:03.5 [SCE01   ] CE_M322_AN_TOUT_LOAD_CYCLE ALARM is acknowledged by WC4CE01::COLD END OPERATOR                     
14/09/2004 12:15:03.6 [SCE01   ] CE_M322_AN_TOUT_LOAD_CYCLE ALARM is acknowledged by WC4CE01::COLD END OPERATOR                     
14/09/2004 12:15:05.2 [SCE01   ] CE_M701_ANM_SAFETY_AREA ALARM is acknowledged by WC4CE01::COLD END OPERATOR                        
14/09/2004 12:15:05.4 [SCE01   ] CE_M701_ANM_SAFETY_AREA ALARM is acknowledged by WC4CE01::COLD END OPERATOR                        
14/09/2004 12:15:07.5 [SBP01   ] PCU1_2_ALARM_02 ALARM is acknowledged by WC4BP01::BATCH PLANT OPERATOR                             
14/09/2004 12:15:15.8 [SCE01   ] CE_M326_AN_TOUT_LOAD_CYCLE     OK               OPEN      CE M326 TIME OUT LOAD CYCLE             
14/09/2004 12:15:08.8 [SCE01   ] Fix32.SCE01.Z303_4_ANOMALY_RESET.F_CV set to 1 by WC4CE01::COLD END OPERATOR                       
14/09/2004 12:15:07.6 [SBP01   ] PCU1_2_ALARM_02 ALARM is acknowledged by WC4BP01::BATCH PLANT OPERATOR                             
14/09/2004 12:15:08.9 [SCE01   ] CE_M326_AN_TOUT_LOAD_CYCLE     OK               OPEN      CE M326 TIME OUT LOAD CYCLE             
14/09/2004 12:15:33.8 [SCE01   ] CE_M326_AN_TOUT_LOAD_CYCLE     CFN             CLOSE      CE M326 TIME OUT LOAD CYCLE             
14/09/2004 12:15:26.9 [SCE01   ] CE_M326_AN_TOUT_LOAD_CYCLE     CFN             CLOSE      CE M326 TIME OUT LOAD CYCLE             
14/09/2004 12:15:35.6 [SCE01   ] Fix32.SCE01.Z303_3_4_WR_CLEAN_MACHINE.F_CV set to 321 by WC4CE01::COLD END OPERATOR                
14/09/2004 12:15:38.3 [SCE01   ] Fix32.SCE01.Z303_3_CLEAN_REQUEST.F_CV set to 1 by WC4CE01::COLD END OPERATOR                       
14/09/2004 12:15:46.2 [SCE01   ] Fix32.SCE01.Z303_3_CLEAN_STOP.F_CV set to 1 by WC4CE01::COLD END OPERATOR                          
14/09/2004 12:15:51.8 [SCE01   ] Fix32.SCE01.Z303_4_ANOMALY_RESET.F_CV set to 1 by WC4CE01::COLD END OPERATOR                       
14/09/2004 12:15:58.8 [SCE01   ] CE_M326_AN_TOUT_LOAD_CYCLE     OK               OPEN      CE M326 TIME OUT LOAD CYCLE             
14/09/2004 12:15:52.2 [SCE01   ] Fix32.SCE01.Z303_4_ANOMALY_RESET.F_CV set to 1 by WC4CE01::COLD END OPERATOR                       
14/09/2004 12:15:52.6 [SCE01   ] Fix32.SCE01.Z303_4_ANOMALY_RESET.F_CV set to 1 by WC4CE01::COLD END OPERATOR                       
14/09/2004 12:15:50.9 [SCE01   ] CE_M326_AN_TOUT_LOAD_CYCLE     OK               OPEN      CE M326 TIME OUT LOAD CYCLE             
14/09/2004 12:15:53.2 [SCE01   ] Fix32.SCE01.Z303_4_ANOMALY_RESET.F_CV set to 1 by WC4CE01::COLD END OPERATOR                       
14/09/2004 12:15:53.5 [SCE01   ] Fix32.SCE01.Z303_4_ANOMALY_RESET.F_CV set to 1 by WC4CE01::COLD END OPERATOR                       
14/09/2004 12:15:54.0 [SCE01   ] Fix32.SCE01.Z303_4_ANOMALY_RESET.F_CV set to 1 by WC4CE01::COLD END OPERATOR                       
14/09/2004 12:16:00.0 [SBP01   ] Fix32.thisnode.name1.A_CV set to Areia 1 by SC4BP01::BATCH PLANT OPERATOR                          
14/09/2004 12:16:00.0 [SBP01   ] Fix32.thisnode.name2.A_CV set to Areia 2 by SC4BP01::BATCH PLANT OPERATOR                          
14/09/2004 12:16:00.0 [SBP01   ] Fix32.thisnode.name3.A_CV set to Dolomita by SC4BP01::BATCH PLANT OPERATOR                         
14/09/2004 12:16:00.0 [SBP01   ] Fix32.thisnode.name4.A_CV set to Calcario by SC4BP01::BATCH PLANT OPERATOR                         
14/09/2004 12:16:00.0 [SBP01   ] Fix32.thisnode.name5.A_CV set to Reserva by SC4BP01::BATCH PLANT OPERATOR                          
14/09/2004 12:16:00.0 [SBP01   ] Fix32.thisnode.name6.A_CV set to Barrilha by SC4BP01::BATCH PLANT OPERATOR                         
14/09/2004 12:16:00.0 [SBP01   ] Fix32.thisnode.name7.A_CV set to Feldspato by SC4BP01::BATCH PLANT OPERATOR                        
14/09/2004 12:16:00.1 [SBP01   ] Fix32.thisnode.name8.A_CV set to Sulfato by SC4BP01::BATCH PLANT OPERATOR                          
14/09/2004 12:16:00.1 [SBP01   ] Fix32.thisnode.name9.A_CV set to Po de EP by SC4BP01::BATCH PLANT OPERATOR                         
14/09/2004 12:16:00.1 [SBP01   ] Fix32.thisnode.name10.A_CV set to Grafite by SC4BP01::BATCH PLANT OPERATOR                         
14/09/2004 12:16:00.1 [SBP01   ] Fix32.thisnode.name11.A_CV set to Ferro by SC4BP01::BATCH PLANT OPERATOR                           
14/09/2004 12:16:00.1 [SBP01   ] Fix32.thisnode.name12.A_CV set to Nitrato by SC4BP01::BATCH PLANT OPERATOR                         
14/09/2004 12:16:00.1 [SBP01   ] Fix32.thisnode.name14.A_CV set to Selenio by SC4BP01::BATCH PLANT OPERATOR                         
14/09/2004 12:16:00.2 [SBP01   ] Fix32.thisnode.name15.A_CV set to Cobalto by SC4BP01::BATCH PLANT OPERATOR                         
14/09/2004 12:16:00.2 [SBP01   ] Fix32.thisnode.name16.A_CV set to Ferro by SC4BP01::BATCH PLANT OPERATOR                           
14/09/2004 12:16:00.2 [SBP01   ] Fix32.thisnode.name20.A_CV set to Caco by SC4BP01::BATCH PLANT OPERATOR                            
14/09/2004 12:16:00.2 [SBP01   ] Fix32.thisnode.name50.A_CV set to  gua by SC4BP01::BATCH PLANT OPERATOR                            
14/09/2004 12:16:00.2 [SBP01   ] Fix32.thisnode.name51.A_CV set to Vapor by SC4BP01::BATCH PLANT OPERATOR                           
14/09/2004 12:16:00.2 [SBP01   ] Fix32.thisnode.name201.A_CV set to Mst 1 seco by SC4BP01::BATCH PLANT OPERATOR                     
14/09/2004 12:16:00.2 [SBP01   ] Fix32.thisnode.name202.A_CV set to Mst 2 seco by SC4BP01::BATCH PLANT OPERATOR                     
14/09/2004 12:16:00.3 [SBP01   ] Fix32.thisnode.name203.A_CV set to Mst 1  mido by SC4BP01::BATCH PLANT OPERATOR                    
14/09/2004 12:16:00.3 [SBP01   ] Fix32.thisnode.name204.A_CV set to Mst 2  mido by SC4BP01::BATCH PLANT OPERATOR                    
14/09/2004 12:17:10.2 [SCE01   ] CE_M326_AN_TOUT_LOAD_CYCLE ALARM is acknowledged by WC4CE01::COLD END OPERATOR                     
14/09/2004 12:17:10.4 [SCE01   ] CE_M326_AN_TOUT_LOAD_CYCLE ALARM is acknowledged by WC4CE01::COLD END OPERATOR                     
14/09/2004 12:20:00.5 [SBP01   ] Fix32.thisnode.name1.A_CV set to Areia 1 by SC4BP01::BATCH PLANT OPERATOR                          
14/09/2004 12:20:00.5 [SBP01   ] Fix32.thisnode.name2.A_CV set to Areia 2 by SC4BP01::BATCH PLANT OPERATOR                          
14/09/2004 12:20:00.5 [SBP01   ] Fix32.thisnode.name3.A_CV set to Dolomita by SC4BP01::BATCH PLANT OPERATOR                         
14/09/2004 12:20:00.5 [SBP01   ] Fix32.thisnode.name4.A_CV set to Calcario by SC4BP01::BATCH PLANT OPERATOR                         
14/09/2004 12:20:00.6 [SBP01   ] Fix32.thisnode.name5.A_CV set to Reserva by SC4BP01::BATCH PLANT OPERATOR                          
14/09/2004 12:20:00.6 [SBP01   ] Fix32.thisnode.name6.A_CV set to Barrilha by SC4BP01::BATCH PLANT OPERATOR                         
14/09/2004 12:20:00.6 [SBP01   ] Fix32.thisnode.name7.A_CV set to Feldspato by SC4BP01::BATCH PLANT OPERATOR                        
14/09/2004 12:20:00.6 [SBP01   ] Fix32.thisnode.name8.A_CV set to Sulfato by SC4BP01::BATCH PLANT OPERATOR                          
14/09/2004 12:20:00.6 [SBP01   ] Fix32.thisnode.name9.A_CV set to Po de EP by SC4BP01::BATCH PLANT OPERATOR                         
14/09/2004 12:20:00.7 [SBP01   ] Fix32.thisnode.name10.A_CV set to Grafite by SC4BP01::BATCH PLANT OPERATOR                         
14/09/2004 12:20:00.7 [SBP01   ] Fix32.thisnode.name11.A_CV set to Ferro by SC4BP01::BATCH PLANT OPERATOR                           
14/09/2004 12:20:00.7 [SBP01   ] Fix32.thisnode.name12.A_CV set to Nitrato by SC4BP01::BATCH PLANT OPERATOR                         
14/09/2004 12:20:00.7 [SBP01   ] Fix32.thisnode.name14.A_CV set to Selenio by SC4BP01::BATCH PLANT OPERATOR                         
14/09/2004 12:20:00.7 [SBP01   ] Fix32.thisnode.name15.A_CV set to Cobalto by SC4BP01::BATCH PLANT OPERATOR                         
14/09/2004 12:20:00.7 [SBP01   ] Fix32.thisnode.name16.A_CV set to Ferro by SC4BP01::BATCH PLANT OPERATOR                           
14/09/2004 12:20:00.8 [SBP01   ] Fix32.thisnode.name20.A_CV set to Caco by SC4BP01::BATCH PLANT OPERATOR                            
14/09/2004 12:20:00.8 [SBP01   ] Fix32.thisnode.name50.A_CV set to  gua by SC4BP01::BATCH PLANT OPERATOR                            
14/09/2004 12:20:00.8 [SBP01   ] Fix32.thisnode.name51.A_CV set to Vapor by SC4BP01::BATCH PLANT OPERATOR                           
14/09/2004 12:20:00.8 [SBP01   ] Fix32.thisnode.name201.A_CV set to Mst 1 seco by SC4BP01::BATCH PLANT OPERATOR                     
14/09/2004 12:20:00.8 [SBP01   ] Fix32.thisnode.name202.A_CV set to Mst 2 seco by SC4BP01::BATCH PLANT OPERATOR                     
14/09/2004 12:20:00.9 [SBP01   ] Fix32.thisnode.name203.A_CV set to Mst 1  mido by SC4BP01::BATCH PLANT OPERATOR                    
14/09/2004 12:20:00.9 [SBP01   ] Fix32.thisnode.name204.A_CV set to Mst 2  mido by SC4BP01::BATCH PLANT OPERATOR                    
14/09/2004 12:21:06.9 [SBP01   ] Fix32.sbp01.Bu2_gate_permission.f_cv set to 0 by SC4BP01::BATCH PLANT OPERATOR                     
14/09/2004 12:22:55.8 [SCE01   ] CE_M501_ANM_SAFETY_AREA        CFN             CLOSE      CE M501 SAFETY AREA                     
14/09/2004 12:22:48.9 [SCE01   ] CE_M501_ANM_SAFETY_AREA        CFN             CLOSE      CE M501 SAFETY AREA                     
14/09/2004 12:24:00.0 [SBP01   ] Fix32.thisnode.name1.A_CV set to Areia 1 by SC4BP01::BATCH PLANT OPERATOR                          
14/09/2004 12:24:00.0 [SBP01   ] Fix32.thisnode.name2.A_CV set to Areia 2 by SC4BP01::BATCH PLANT OPERATOR                          
14/09/2004 12:24:00.0 [SBP01   ] Fix32.thisnode.name3.A_CV set to Dolomita by SC4BP01::BATCH PLANT OPERATOR                         
14/09/2004 12:24:00.0 [SBP01   ] Fix32.thisnode.name4.A_CV set to Calcario by SC4BP01::BATCH PLANT OPERATOR                         
14/09/2004 12:24:00.0 [SBP01   ] Fix32.thisnode.name5.A_CV set to Reserva by SC4BP01::BATCH PLANT OPERATOR                          
14/09/2004 12:24:00.1 [SBP01   ] Fix32.thisnode.name6.A_CV set to Barrilha by SC4BP01::BATCH PLANT OPERATOR                         
14/09/2004 12:24:00.1 [SBP01   ] Fix32.thisnode.name7.A_CV set to Feldspato by SC4BP01::BATCH PLANT OPERATOR                        
14/09/2004 12:24:00.1 [SBP01   ] Fix32.thisnode.name8.A_CV set to Sulfato by SC4BP01::BATCH PLANT OPERATOR                          
14/09/2004 12:24:00.1 [SBP01   ] Fix32.thisnode.name9.A_CV set to Po de EP by SC4BP01::BATCH PLANT OPERATOR                         
14/09/2004 12:24:00.1 [SBP01   ] Fix32.thisnode.name10.A_CV set to Grafite by SC4BP01::BATCH PLANT OPERATOR                         
14/09/2004 12:24:00.2 [SBP01   ] Fix32.thisnode.name11.A_CV set to Ferro by SC4BP01::BATCH PLANT OPERATOR                           
14/09/2004 12:24:00.2 [SBP01   ] Fix32.thisnode.name12.A_CV set to Nitrato by SC4BP01::BATCH PLANT OPERATOR                         
14/09/2004 12:24:00.2 [SBP01   ] Fix32.thisnode.name14.A_CV set to Selenio by SC4BP01::BATCH PLANT OPERATOR                         
14/09/2004 12:24:00.2 [SBP01   ] Fix32.thisnode.name15.A_CV set to Cobalto by SC4BP01::BATCH PLANT OPERATOR                         
14/09/2004 12:24:00.2 [SBP01   ] Fix32.thisnode.name16.A_CV set to Ferro by SC4BP01::BATCH PLANT OPERATOR                           
14/09/2004 12:24:00.3 [SBP01   ] Fix32.thisnode.name20.A_CV set to Caco by SC4BP01::BATCH PLANT OPERATOR                            
14/09/2004 12:24:00.3 [SBP01   ] Fix32.thisnode.name50.A_CV set to  gua by SC4BP01::BATCH PLANT OPERATOR                            
14/09/2004 12:24:00.3 [SBP01   ] Fix32.thisnode.name51.A_CV set to Vapor by SC4BP01::BATCH PLANT OPERATOR                           
14/09/2004 12:24:00.3 [SBP01   ] Fix32.thisnode.name201.A_CV set to Mst 1 seco by SC4BP01::BATCH PLANT OPERATOR                     
14/09/2004 12:24:00.3 [SBP01   ] Fix32.thisnode.name202.A_CV set to Mst 2 seco by SC4BP01::BATCH PLANT OPERATOR                     
14/09/2004 12:24:00.4 [SBP01   ] Fix32.thisnode.name203.A_CV set to Mst 1  mido by SC4BP01::BATCH PLANT OPERATOR                    
14/09/2004 12:24:00.4 [SBP01   ] Fix32.thisnode.name204.A_CV set to Mst 2  mido by SC4BP01::BATCH PLANT OPERATOR                    
14/09/2004 12:26:33.8 [SCE01   ] CE_M501_ANM_SAFETY_AREA        OK               OPEN      CE M501 SAFETY AREA                     
14/09/2004 12:26:26.9 [SCE01   ] CE_M501_ANM_SAFETY_AREA        OK               OPEN      CE M501 SAFETY AREA                     
14/09/2004 12:28:00.0 [SBP01   ] Fix32.thisnode.name1.A_CV set to Areia 1 by SC4BP01::BATCH PLANT OPERATOR                          
14/09/2004 12:28:00.0 [SBP01   ] Fix32.thisnode.name2.A_CV set to Areia 2 by SC4BP01::BATCH PLANT OPERATOR                          
14/09/2004 12:28:00.0 [SBP01   ] Fix32.thisnode.name3.A_CV set to Dolomita by SC4BP01::BATCH PLANT OPERATOR                         
14/09/2004 12:28:00.0 [SBP01   ] Fix32.thisnode.name4.A_CV set to Calcario by SC4BP01::BATCH PLANT OPERATOR                         
14/09/2004 12:28:00.0 [SBP01   ] Fix32.thisnode.name5.A_CV set to Reserva by SC4BP01::BATCH PLANT OPERATOR                          
14/09/2004 12:28:00.0 [SBP01   ] Fix32.thisnode.name6.A_CV set to Barrilha by SC4BP01::BATCH PLANT OPERATOR                         
14/09/2004 12:28:00.0 [SBP01   ] Fix32.thisnode.name7.A_CV set to Feldspato by SC4BP01::BATCH PLANT OPERATOR                        
14/09/2004 12:28:00.0 [SBP01   ] Fix32.thisnode.name8.A_CV set to Sulfato by SC4BP01::BATCH PLANT OPERATOR                          
14/09/2004 12:28:00.1 [SBP01   ] Fix32.thisnode.name9.A_CV set to Po de EP by SC4BP01::BATCH PLANT OPERATOR                         
14/09/2004 12:28:00.1 [SBP01   ] Fix32.thisnode.name10.A_CV set to Grafite by SC4BP01::BATCH PLANT OPERATOR                         
14/09/2004 12:28:00.1 [SBP01   ] Fix32.thisnode.name11.A_CV set to Ferro by SC4BP01::BATCH PLANT OPERATOR                           
14/09/2004 12:28:00.1 [SBP01   ] Fix32.thisnode.name12.A_CV set to Nitrato by SC4BP01::BATCH PLANT OPERATOR                         
14/09/2004 12:28:00.1 [SBP01   ] Fix32.thisnode.name14.A_CV set to Selenio by SC4BP01::BATCH PLANT OPERATOR                         
14/09/2004 12:28:00.1 [SBP01   ] Fix32.thisnode.name15.A_CV set to Cobalto by SC4BP01::BATCH PLANT OPERATOR                         
14/09/2004 12:28:00.2 [SBP01   ] Fix32.thisnode.name16.A_CV set to Ferro by SC4BP01::BATCH PLANT OPERATOR                           
14/09/2004 12:28:00.2 [SBP01   ] Fix32.thisnode.name20.A_CV set to Caco by SC4BP01::BATCH PLANT OPERATOR                            
14/09/2004 12:28:00.2 [SBP01   ] Fix32.thisnode.name50.A_CV set to  gua by SC4BP01::BATCH PLANT OPERATOR                            
14/09/2004 12:28:00.2 [SBP01   ] Fix32.thisnode.name51.A_CV set to Vapor by SC4BP01::BATCH PLANT OPERATOR                           
14/09/2004 12:28:00.2 [SBP01   ] Fix32.thisnode.name201.A_CV set to Mst 1 seco by SC4BP01::BATCH PLANT OPERATOR                     
14/09/2004 12:28:00.2 [SBP01   ] Fix32.thisnode.name202.A_CV set to Mst 2 seco by SC4BP01::BATCH PLANT OPERATOR                     
14/09/2004 12:28:00.2 [SBP01   ] Fix32.thisnode.name203.A_CV set to Mst 1  mido by SC4BP01::BATCH PLANT OPERATOR                    
14/09/2004 12:28:00.2 [SBP01   ] Fix32.thisnode.name204.A_CV set to Mst 2  mido by SC4BP01::BATCH PLANT OPERATOR                    
14/09/2004 12:28:16.0 [SBP01   ] CULLET_LOADING_START                               0                                              
14/09/2004 12:28:16.0 [SBP01   ] Fix32.SBP01.cullet_loading_start.f_CV set to 0 by SC4BP01::BATCH PLANT OPERATOR                    
14/09/2004 12:30:53.4 [SBP01   ] Fix32.sbp01.alltime1.f_cv set to 1 by SC4BP01::BATCH PLANT OPERATOR                                
14/09/2004 12:31:00.9 [SBP01   ] Fix32.sbp01.alltime1.f_cv set to 1 by SC4BP01::BATCH PLANT OPERATOR                                
14/09/2004 12:32:00.0 [SBP01   ] Fix32.thisnode.name1.A_CV set to Areia 1 by SC4BP01::BATCH PLANT OPERATOR                          
14/09/2004 12:32:00.0 [SBP01   ] Fix32.thisnode.name2.A_CV set to Areia 2 by SC4BP01::BATCH PLANT OPERATOR                          
14/09/2004 12:32:00.0 [SBP01   ] Fix32.thisnode.name3.A_CV set to Dolomita by SC4BP01::BATCH PLANT OPERATOR                         
14/09/2004 12:32:00.0 [SBP01   ] Fix32.thisnode.name4.A_CV set to Calcario by SC4BP01::BATCH PLANT OPERATOR                         
14/09/2004 12:32:00.0 [SBP01   ] Fix32.thisnode.name5.A_CV set to Reserva by SC4BP01::BATCH PLANT OPERATOR                          
14/09/2004 12:32:00.0 [SBP01   ] Fix32.thisnode.name6.A_CV set to Barrilha by SC4BP01::BATCH PLANT OPERATOR                         
14/09/2004 12:32:00.1 [SBP01   ] Fix32.thisnode.name7.A_CV set to Feldspato by SC4BP01::BATCH PLANT OPERATOR                        
14/09/2004 12:32:00.1 [SBP01   ] Fix32.thisnode.name8.A_CV set to Sulfato by SC4BP01::BATCH PLANT OPERATOR                          
14/09/2004 12:32:00.1 [SBP01   ] Fix32.thisnode.name9.A_CV set to Po de EP by SC4BP01::BATCH PLANT OPERATOR                         
14/09/2004 12:32:00.1 [SBP01   ] Fix32.thisnode.name10.A_CV set to Grafite by SC4BP01::BATCH PLANT OPERATOR                         
14/09/2004 12:32:00.1 [SBP01   ] Fix32.thisnode.name11.A_CV set to Ferro by SC4BP01::BATCH PLANT OPERATOR                           
14/09/2004 12:32:00.2 [SBP01   ] Fix32.thisnode.name12.A_CV set to Nitrato by SC4BP01::BATCH PLANT OPERATOR                         
14/09/2004 12:32:00.2 [SBP01   ] Fix32.thisnode.name14.A_CV set to Selenio by SC4BP01::BATCH PLANT OPERATOR                         
14/09/2004 12:32:00.2 [SBP01   ] Fix32.thisnode.name15.A_CV set to Cobalto by SC4BP01::BATCH PLANT OPERATOR                         
14/09/2004 12:32:00.2 [SBP01   ] Fix32.thisnode.name16.A_CV set to Ferro by SC4BP01::BATCH PLANT OPERATOR                           
14/09/2004 12:32:00.2 [SBP01   ] Fix32.thisnode.name20.A_CV set to Caco by SC4BP01::BATCH PLANT OPERATOR                            
14/09/2004 12:32:00.3 [SBP01   ] Fix32.thisnode.name50.A_CV set to  gua by SC4BP01::BATCH PLANT OPERATOR                            
14/09/2004 12:32:00.3 [SBP01   ] Fix32.thisnode.name51.A_CV set to Vapor by SC4BP01::BATCH PLANT OPERATOR                           
14/09/2004 12:32:00.3 [SBP01   ] Fix32.thisnode.name201.A_CV set to Mst 1 seco by SC4BP01::BATCH PLANT OPERATOR                     
14/09/2004 12:32:00.3 [SBP01   ] Fix32.thisnode.name202.A_CV set to Mst 2 seco by SC4BP01::BATCH PLANT OPERATOR                     
14/09/2004 12:32:00.3 [SBP01   ] Fix32.thisnode.name203.A_CV set to Mst 1  mido by SC4BP01::BATCH PLANT OPERATOR                    
14/09/2004 12:32:00.3 [SBP01   ] Fix32.thisnode.name204.A_CV set to Mst 2  mido by SC4BP01::BATCH PLANT OPERATOR                    
14/09/2004 12:33:17.1 [SBP01   ] Fix32.sbp01.alltime1.f_cv set to 1 by SC4BP01::BATCH PLANT OPERATOR                                
14/09/2004 12:33:53.4 [SCE01   ] Fix32.SCE01.PAT15_FECR_L.F_CV set to 0 by WC4CE01::COLD END OPERATOR                               
14/09/2004 12:33:54.6 [SCE01   ] Fix32.SCE01.PAT15_FECR_R.F_CV set to 0 by WC4CE01::COLD END OPERATOR                               
14/09/2004 12:33:58.5 [SCE01   ] Fix32.SCE01.PAT15_LIN_ENAB.F_CV set to 1 by WC4CE01::COLD END OPERATOR                             
14/09/2004 12:34:15.9 [SBP01   ] FURNACE_HOPPER_ALARM_WORD ALARM is acknowledged by SC4BP01::BATCH PLANT OPERATOR                   
14/09/2004 12:34:15.9 [SBP01   ] FURNACE_HOPPER_ALARM_WORD ALARM is acknowledged by SC4BP01::BATCH PLANT OPERATOR                   
14/09/2004 12:34:16.2 [SBP01   ] FURNACE_HOPPER_ALARM_07 ALARM is acknowledged by SC4BP01::BATCH PLANT OPERATOR                     
14/09/2004 12:34:17.1 [SBP01   ] FURNACE_HOPPER_ALARM_09 ALARM is acknowledged by SC4BP01::BATCH PLANT OPERATOR                     
14/09/2004 12:34:17.1 [SBP01   ] FURNACE_HOPPER_ALARM_09 ALARM is acknowledged by SC4BP01::BATCH PLANT OPERATOR                     
14/09/2004 12:34:17.6 [SBP01   ] PROFI_PLCF13_SLAVE9_DIAG_1 ALARM is acknowledged by SC4BP01::BATCH PLANT OPERATOR                  
14/09/2004 12:34:53.1 [SCE07   ] Fix32.SCE07.EDGE_STRESS_UNITS.F_CV set to  0 by SC4CE07::COLD END OPERATOR                         
14/09/2004 12:36:00.0 [SBP01   ] Fix32.thisnode.name1.A_CV set to Areia 1 by SC4BP01::BATCH PLANT OPERATOR                          
14/09/2004 12:36:00.0 [SBP01   ] Fix32.thisnode.name2.A_CV set to Areia 2 by SC4BP01::BATCH PLANT OPERATOR                          
14/09/2004 12:36:00.0 [SBP01   ] Fix32.thisnode.name3.A_CV set to Dolomita by SC4BP01::BATCH PLANT OPERATOR                         
14/09/2004 12:36:00.0 [SBP01   ] Fix32.thisnode.name4.A_CV set to Calcario by SC4BP01::BATCH PLANT OPERATOR                         
14/09/2004 12:36:00.0 [SBP01   ] Fix32.thisnode.name5.A_CV set to Reserva by SC4BP01::BATCH PLANT OPERATOR                          
14/09/2004 12:36:00.0 [SBP01   ] Fix32.thisnode.name6.A_CV set to Barrilha by SC4BP01::BATCH PLANT OPERATOR                         
14/09/2004 12:36:00.1 [SBP01   ] Fix32.thisnode.name7.A_CV set to Feldspato by SC4BP01::BATCH PLANT OPERATOR                        
14/09/2004 12:36:00.1 [SBP01   ] Fix32.thisnode.name8.A_CV set to Sulfato by SC4BP01::BATCH PLANT OPERATOR                          
14/09/2004 12:36:00.1 [SBP01   ] Fix32.thisnode.name9.A_CV set to Po de EP by SC4BP01::BATCH PLANT OPERATOR                         
14/09/2004 12:36:00.1 [SBP01   ] Fix32.thisnode.name10.A_CV set to Grafite by SC4BP01::BATCH PLANT OPERATOR                         
14/09/2004 12:36:00.1 [SBP01   ] Fix32.thisnode.name11.A_CV set to Ferro by SC4BP01::BATCH PLANT OPERATOR                           
14/09/2004 12:36:00.1 [SBP01   ] Fix32.thisnode.name12.A_CV set to Nitrato by SC4BP01::BATCH PLANT OPERATOR                         
14/09/2004 12:36:00.1 [SBP01   ] Fix32.thisnode.name14.A_CV set to Selenio by SC4BP01::BATCH PLANT OPERATOR                         
14/09/2004 12:36:00.1 [SBP01   ] Fix32.thisnode.name15.A_CV set to Cobalto by SC4BP01::BATCH PLANT OPERATOR                         
14/09/2004 12:36:00.1 [SBP01   ] Fix32.thisnode.name16.A_CV set to Ferro by SC4BP01::BATCH PLANT OPERATOR                           
14/09/2004 12:36:00.2 [SBP01   ] Fix32.thisnode.name20.A_CV set to Caco by SC4BP01::BATCH PLANT OPERATOR                            
14/09/2004 12:36:00.2 [SBP01   ] Fix32.thisnode.name50.A_CV set to  gua by SC4BP01::BATCH PLANT OPERATOR                            
14/09/2004 12:36:00.2 [SBP01   ] Fix32.thisnode.name51.A_CV set to Vapor by SC4BP01::BATCH PLANT OPERATOR                           
14/09/2004 12:36:00.2 [SBP01   ] Fix32.thisnode.name201.A_CV set to Mst 1 seco by SC4BP01::BATCH PLANT OPERATOR                     
14/09/2004 12:36:00.2 [SBP01   ] Fix32.thisnode.name202.A_CV set to Mst 2 seco by SC4BP01::BATCH PLANT OPERATOR                     
14/09/2004 12:36:00.2 [SBP01   ] Fix32.thisnode.name203.A_CV set to Mst 1  mido by SC4BP01::BATCH PLANT OPERATOR                    
14/09/2004 12:36:00.2 [SBP01   ] Fix32.thisnode.name204.A_CV set to Mst 2  mido by SC4BP01::BATCH PLANT OPERATOR                    
14/09/2004 12:36:19.3 [SCE07   ] Fix32.SCE07.EDGE_STRESS_UNITS.F_CV set to  0 by WC4CE01::COLD END OPERATOR                         
14/09/2004 12:40:00.4 [SBP01   ] Fix32.thisnode.name1.A_CV set to Areia 1 by SC4BP01::BATCH PLANT OPERATOR                          
14/09/2004 12:40:00.4 [SBP01   ] Fix32.thisnode.name2.A_CV set to Areia 2 by SC4BP01::BATCH PLANT OPERATOR                          
14/09/2004 12:40:00.4 [SBP01   ] Fix32.thisnode.name3.A_CV set to Dolomita by SC4BP01::BATCH PLANT OPERATOR                         
14/09/2004 12:40:00.4 [SBP01   ] Fix32.thisnode.name4.A_CV set to Calcario by SC4BP01::BATCH PLANT OPERATOR                         
14/09/2004 12:40:00.5 [SBP01   ] Fix32.thisnode.name5.A_CV set to Reserva by SC4BP01::BATCH PLANT OPERATOR                          
14/09/2004 12:40:00.5 [SBP01   ] Fix32.thisnode.name6.A_CV set to Barrilha by SC4BP01::BATCH PLANT OPERATOR                         
14/09/2004 12:40:00.5 [SBP01   ] Fix32.thisnode.name7.A_CV set to Feldspato by SC4BP01::BATCH PLANT OPERATOR                        
14/09/2004 12:40:00.5 [SBP01   ] Fix32.thisnode.name8.A_CV set to Sulfato by SC4BP01::BATCH PLANT OPERATOR                          
14/09/2004 12:40:00.5 [SBP01   ] Fix32.thisnode.name9.A_CV set to Po de EP by SC4BP01::BATCH PLANT OPERATOR                         
14/09/2004 12:40:00.5 [SBP01   ] Fix32.thisnode.name10.A_CV set to Grafite by SC4BP01::BATCH PLANT OPERATOR                         
14/09/2004 12:40:00.6 [SBP01   ] Fix32.thisnode.name11.A_CV set to Ferro by SC4BP01::BATCH PLANT OPERATOR                           
14/09/2004 12:40:00.6 [SBP01   ] Fix32.thisnode.name12.A_CV set to Nitrato by SC4BP01::BATCH PLANT OPERATOR                         
14/09/2004 12:40:00.6 [SBP01   ] Fix32.thisnode.name14.A_CV set to Selenio by SC4BP01::BATCH PLANT OPERATOR                         
14/09/2004 12:40:00.6 [SBP01   ] Fix32.thisnode.name15.A_CV set to Cobalto by SC4BP01::BATCH PLANT OPERATOR                         
14/09/2004 12:40:00.6 [SBP01   ] Fix32.thisnode.name16.A_CV set to Ferro by SC4BP01::BATCH PLANT OPERATOR                           
14/09/2004 12:40:00.6 [SBP01   ] Fix32.thisnode.name20.A_CV set to Caco by SC4BP01::BATCH PLANT OPERATOR                            
14/09/2004 12:40:00.7 [SBP01   ] Fix32.thisnode.name50.A_CV set to  gua by SC4BP01::BATCH PLANT OPERATOR                            
14/09/2004 12:40:00.7 [SBP01   ] Fix32.thisnode.name51.A_CV set to Vapor by SC4BP01::BATCH PLANT OPERATOR                           
14/09/2004 12:40:00.7 [SBP01   ] Fix32.thisnode.name201.A_CV set to Mst 1 seco by SC4BP01::BATCH PLANT OPERATOR                     
14/09/2004 12:40:00.7 [SBP01   ] Fix32.thisnode.name202.A_CV set to Mst 2 seco by SC4BP01::BATCH PLANT OPERATOR                     
14/09/2004 12:40:00.7 [SBP01   ] Fix32.thisnode.name203.A_CV set to Mst 1  mido by SC4BP01::BATCH PLANT OPERATOR                    
14/09/2004 12:40:00.7 [SBP01   ] Fix32.thisnode.name204.A_CV set to Mst 2  mido by SC4BP01::BATCH PLANT OPERATOR                    
14/09/2004 12:44:00.0 [SBP01   ] Fix32.thisnode.name1.A_CV set to Areia 1 by SC4BP01::BATCH PLANT OPERATOR                          
14/09/2004 12:44:00.0 [SBP01   ] Fix32.thisnode.name2.A_CV set to Areia 2 by SC4BP01::BATCH PLANT OPERATOR                          
14/09/2004 12:44:00.0 [SBP01   ] Fix32.thisnode.name3.A_CV set to Dolomita by SC4BP01::BATCH PLANT OPERATOR                         
14/09/2004 12:44:00.0 [SBP01   ] Fix32.thisnode.name4.A_CV set to Calcario by SC4BP01::BATCH PLANT OPERATOR                         
14/09/2004 12:44:00.0 [SBP01   ] Fix32.thisnode.name5.A_CV set to Reserva by SC4BP01::BATCH PLANT OPERATOR                          
14/09/2004 12:44:00.0 [SBP01   ] Fix32.thisnode.name6.A_CV set to Barrilha by SC4BP01::BATCH PLANT OPERATOR                         
14/09/2004 12:44:00.1 [SBP01   ] Fix32.thisnode.name7.A_CV set to Feldspato by SC4BP01::BATCH PLANT OPERATOR                        
14/09/2004 12:44:00.1 [SBP01   ] Fix32.thisnode.name8.A_CV set to Sulfato by SC4BP01::BATCH PLANT OPERATOR                          
14/09/2004 12:44:00.1 [SBP01   ] Fix32.thisnode.name9.A_CV set to Po de EP by SC4BP01::BATCH PLANT OPERATOR                         
14/09/2004 12:44:00.1 [SBP01   ] Fix32.thisnode.name10.A_CV set to Grafite by SC4BP01::BATCH PLANT OPERATOR                         
14/09/2004 12:44:00.1 [SBP01   ] Fix32.thisnode.name11.A_CV set to Ferro by SC4BP01::BATCH PLANT OPERATOR                           
14/09/2004 12:44:00.1 [SBP01   ] Fix32.thisnode.name12.A_CV set to Nitrato by SC4BP01::BATCH PLANT OPERATOR                         
14/09/2004 12:44:00.1 [SBP01   ] Fix32.thisnode.name14.A_CV set to Selenio by SC4BP01::BATCH PLANT OPERATOR                         
14/09/2004 12:44:00.2 [SBP01   ] Fix32.thisnode.name15.A_CV set to Cobalto by SC4BP01::BATCH PLANT OPERATOR                         
14/09/2004 12:44:00.2 [SBP01   ] Fix32.thisnode.name16.A_CV set to Ferro by SC4BP01::BATCH PLANT OPERATOR                           
14/09/2004 12:44:00.2 [SBP01   ] Fix32.thisnode.name20.A_CV set to Caco by SC4BP01::BATCH PLANT OPERATOR                            
14/09/2004 12:44:00.2 [SBP01   ] Fix32.thisnode.name50.A_CV set to  gua by SC4BP01::BATCH PLANT OPERATOR                            
14/09/2004 12:44:00.2 [SBP01   ] Fix32.thisnode.name51.A_CV set to Vapor by SC4BP01::BATCH PLANT OPERATOR                           
14/09/2004 12:44:00.2 [SBP01   ] Fix32.thisnode.name201.A_CV set to Mst 1 seco by SC4BP01::BATCH PLANT OPERATOR                     
14/09/2004 12:44:00.2 [SBP01   ] Fix32.thisnode.name202.A_CV set to Mst 2 seco by SC4BP01::BATCH PLANT OPERATOR                     
14/09/2004 12:44:00.2 [SBP01   ] Fix32.thisnode.name203.A_CV set to Mst 1  mido by SC4BP01::BATCH PLANT OPERATOR                    
14/09/2004 12:44:00.3 [SBP01   ] Fix32.thisnode.name204.A_CV set to Mst 2  mido by SC4BP01::BATCH PLANT OPERATOR                    
14/09/2004 12:44:22.8 [SCE01   ] CE_M501_ANM_SAFETY_AREA        CFN             CLOSE      CE M501 SAFETY AREA                     
14/09/2004 12:44:15.9 [SCE01   ] CE_M501_ANM_SAFETY_AREA        CFN             CLOSE      CE M501 SAFETY AREA                     
14/09/2004 12:44:34.2 [SBP01   ] Fix32.sbp01.alltime1.f_cv set to 1 by WC4BP01::BATCH PLANT OPERATOR                                
14/09/2004 12:44:43.9 [SCE01   ] CE_M501_ANM_SAFETY_AREA        OK               OPEN      CE M501 SAFETY AREA                     
14/09/2004 12:44:51.7 [SCE01   ] CE_M501_ANM_SAFETY_AREA        OK               OPEN      CE M501 SAFETY AREA                     
14/09/2004 12:45:03.3 [SCE07   ] Fix32.SCE07.EDGE_STRESS_UNITS.F_CV set to  0 by SC4CE07::COLD END OPERATOR                         
14/09/2004 12:47:59.9 [SBP01   ] Fix32.thisnode.name1.A_CV set to Areia 1 by SC4BP01::BATCH PLANT OPERATOR                          
14/09/2004 12:48:00.0 [SBP01   ] Fix32.thisnode.name2.A_CV set to Areia 2 by SC4BP01::BATCH PLANT OPERATOR                          
14/09/2004 12:48:00.0 [SBP01   ] Fix32.thisnode.name3.A_CV set to Dolomita by SC4BP01::BATCH PLANT OPERATOR                         
14/09/2004 12:48:00.0 [SBP01   ] Fix32.thisnode.name4.A_CV set to Calcario by SC4BP01::BATCH PLANT OPERATOR                         
14/09/2004 12:48:00.0 [SBP01   ] Fix32.thisnode.name5.A_CV set to Reserva by SC4BP01::BATCH PLANT OPERATOR                          
14/09/2004 12:48:00.0 [SBP01   ] Fix32.thisnode.name6.A_CV set to Barrilha by SC4BP01::BATCH PLANT OPERATOR                         
14/09/2004 12:48:00.1 [SBP01   ] Fix32.thisnode.name7.A_CV set to Feldspato by SC4BP01::BATCH PLANT OPERATOR                        
14/09/2004 12:48:00.1 [SBP01   ] Fix32.thisnode.name8.A_CV set to Sulfato by SC4BP01::BATCH PLANT OPERATOR                          
14/09/2004 12:48:00.1 [SBP01   ] Fix32.thisnode.name9.A_CV set to Po de EP by SC4BP01::BATCH PLANT OPERATOR                         
14/09/2004 12:48:00.1 [SBP01   ] Fix32.thisnode.name10.A_CV set to Grafite by SC4BP01::BATCH PLANT OPERATOR                         
14/09/2004 12:48:00.1 [SBP01   ] Fix32.thisnode.name11.A_CV set to Ferro by SC4BP01::BATCH PLANT OPERATOR                           
14/09/2004 12:48:00.1 [SBP01   ] Fix32.thisnode.name12.A_CV set to Nitrato by SC4BP01::BATCH PLANT OPERATOR                         
14/09/2004 12:48:00.1 [SBP01   ] Fix32.thisnode.name14.A_CV set to Selenio by SC4BP01::BATCH PLANT OPERATOR                         
14/09/2004 12:48:00.2 [SBP01   ] Fix32.thisnode.name15.A_CV set to Cobalto by SC4BP01::BATCH PLANT OPERATOR                         
14/09/2004 12:48:00.2 [SBP01   ] Fix32.thisnode.name16.A_CV set to Ferro by SC4BP01::BATCH PLANT OPERATOR                           
14/09/2004 12:48:00.2 [SBP01   ] Fix32.thisnode.name20.A_CV set to Caco by SC4BP01::BATCH PLANT OPERATOR                            
14/09/2004 12:48:00.2 [SBP01   ] Fix32.thisnode.name50.A_CV set to  gua by SC4BP01::BATCH PLANT OPERATOR                            
14/09/2004 12:48:00.2 [SBP01   ] Fix32.thisnode.name51.A_CV set to Vapor by SC4BP01::BATCH PLANT OPERATOR                           
14/09/2004 12:48:00.2 [SBP01   ] Fix32.thisnode.name201.A_CV set to Mst 1 seco by SC4BP01::BATCH PLANT OPERATOR                     
14/09/2004 12:48:00.3 [SBP01   ] Fix32.thisnode.name202.A_CV set to Mst 2 seco by SC4BP01::BATCH PLANT OPERATOR                     
14/09/2004 12:48:00.3 [SBP01   ] Fix32.thisnode.name203.A_CV set to Mst 1  mido by SC4BP01::BATCH PLANT OPERATOR                    
14/09/2004 12:48:00.3 [SBP01   ] Fix32.thisnode.name204.A_CV set to Mst 2  mido by SC4BP01::BATCH PLANT OPERATOR                    
"14/09/2004 12:48:09.0 [SBP01   ] WH2_TOLERANCE_ERROR_ACK                            1      WH2 Tol error: 1 = O.K., 3 = Reject     "
14/09/2004 12:48:08.9 [SBP01   ] Fix32.sbp01.wh2_tolerance_error_ack.F_cv set to 1 by WC4BP01::BATCH PLANT OPERATOR                 
14/09/2004 12:52:00.0 [SBP01   ] Fix32.thisnode.name1.A_CV set to Areia 1 by SC4BP01::BATCH PLANT OPERATOR                          
14/09/2004 12:52:00.0 [SBP01   ] Fix32.thisnode.name2.A_CV set to Areia 2 by SC4BP01::BATCH PLANT OPERATOR                          
14/09/2004 12:52:00.0 [SBP01   ] Fix32.thisnode.name3.A_CV set to Dolomita by SC4BP01::BATCH PLANT OPERATOR                         
14/09/2004 12:52:00.0 [SBP01   ] Fix32.thisnode.name4.A_CV set to Calcario by SC4BP01::BATCH PLANT OPERATOR                         
14/09/2004 12:52:00.0 [SBP01   ] Fix32.thisnode.name5.A_CV set to Reserva by SC4BP01::BATCH PLANT OPERATOR                          
14/09/2004 12:52:00.0 [SBP01   ] Fix32.thisnode.name6.A_CV set to Barrilha by SC4BP01::BATCH PLANT OPERATOR                         
14/09/2004 12:52:00.0 [SBP01   ] Fix32.thisnode.name7.A_CV set to Feldspato by SC4BP01::BATCH PLANT OPERATOR                        
14/09/2004 12:52:00.1 [SBP01   ] Fix32.thisnode.name8.A_CV set to Sulfato by SC4BP01::BATCH PLANT OPERATOR                          
14/09/2004 12:52:00.1 [SBP01   ] Fix32.thisnode.name9.A_CV set to Po de EP by SC4BP01::BATCH PLANT OPERATOR                         
14/09/2004 12:52:00.1 [SBP01   ] Fix32.thisnode.name10.A_CV set to Grafite by SC4BP01::BATCH PLANT OPERATOR                         
14/09/2004 12:52:00.1 [SBP01   ] Fix32.thisnode.name11.A_CV set to Ferro by SC4BP01::BATCH PLANT OPERATOR                           
14/09/2004 12:52:00.1 [SBP01   ] Fix32.thisnode.name12.A_CV set to Nitrato by SC4BP01::BATCH PLANT OPERATOR                         
14/09/2004 12:52:00.1 [SBP01   ] Fix32.thisnode.name14.A_CV set to Selenio by SC4BP01::BATCH PLANT OPERATOR                         
14/09/2004 12:52:00.2 [SBP01   ] Fix32.thisnode.name15.A_CV set to Cobalto by SC4BP01::BATCH PLANT OPERATOR                         
14/09/2004 12:52:00.2 [SBP01   ] Fix32.thisnode.name16.A_CV set to Ferro by SC4BP01::BATCH PLANT OPERATOR                           
14/09/2004 12:52:00.2 [SBP01   ] Fix32.thisnode.name20.A_CV set to Caco by SC4BP01::BATCH PLANT OPERATOR                            
14/09/2004 12:52:00.2 [SBP01   ] Fix32.thisnode.name50.A_CV set to  gua by SC4BP01::BATCH PLANT OPERATOR                            
14/09/2004 12:52:00.2 [SBP01   ] Fix32.thisnode.name51.A_CV set to Vapor by SC4BP01::BATCH PLANT OPERATOR                           
14/09/2004 12:52:00.2 [SBP01   ] Fix32.thisnode.name201.A_CV set to Mst 1 seco by SC4BP01::BATCH PLANT OPERATOR                     
14/09/2004 12:52:00.2 [SBP01   ] Fix32.thisnode.name202.A_CV set to Mst 2 seco by SC4BP01::BATCH PLANT OPERATOR                     
14/09/2004 12:52:00.2 [SBP01   ] Fix32.thisnode.name203.A_CV set to Mst 1  mido by SC4BP01::BATCH PLANT OPERATOR                    
14/09/2004 12:52:00.3 [SBP01   ] Fix32.thisnode.name204.A_CV set to Mst 2  mido by SC4BP01::BATCH PLANT OPERATOR                    
14/09/2004 12:52:54.3 WC4BP01 SECURITY VIOLATION: BATCH PLANT OPERATOR access to APPLICATION FEATURE System User Login              
14/09/2004 12:53:10.0 [SBP01   ] Fix32.sbp01.alltime1.f_cv set to 1 by WC4BP01::BATCH PLANT OPERATOR                                
14/09/2004 12:53:56.8 [SBP01   ] WH2_DOSING_ALARM_WORD ALARM is acknowledged by WC4BP01::BATCH PLANT OPERATOR                       
14/09/2004 12:53:57.0 [SBP01   ] WH2_DOSING_ALARM_WORD ALARM is acknowledged by WC4BP01::BATCH PLANT OPERATOR                       
14/09/2004 12:53:58.5 [SBP01   ] PCU2_2_ALARM_03 ALARM is acknowledged by WC4BP01::BATCH PLANT OPERATOR                             
14/09/2004 12:53:58.6 [SBP01   ] PCU2_2_ALARM_03 ALARM is acknowledged by WC4BP01::BATCH PLANT OPERATOR                             
14/09/2004 12:53:59.7 [SBP01   ] PCU2_2_ALARM_WORD ALARM is acknowledged by WC4BP01::BATCH PLANT OPERATOR                           
14/09/2004 12:53:59.8 [SBP01   ] PCU2_2_ALARM_WORD ALARM is acknowledged by WC4BP01::BATCH PLANT OPERATOR                           
14/09/2004 12:54:00.3 [SBP01   ] WH2_DOSING_ALARM_04 ALARM is acknowledged by WC4BP01::BATCH PLANT OPERATOR                         
14/09/2004 12:54:00.4 [SBP01   ] WH2_DOSING_ALARM_04 ALARM is acknowledged by WC4BP01::BATCH PLANT OPERATOR                         
14/09/2004 12:54:01.1 [SBP01   ] S3_TOLERANCE_ERROR_VALUE ALARM is acknowledged by WC4BP01::BATCH PLANT OPERATOR                    
14/09/2004 12:54:01.2 [SBP01   ] S3_TOLERANCE_ERROR_VALUE ALARM is acknowledged by WC4BP01::BATCH PLANT OPERATOR                    
14/09/2004 12:56:00.0 [SBP01   ] Fix32.thisnode.name1.A_CV set to Areia 1 by SC4BP01::BATCH PLANT OPERATOR                          
14/09/2004 12:56:00.0 [SBP01   ] Fix32.thisnode.name2.A_CV set to Areia 2 by SC4BP01::BATCH PLANT OPERATOR                          
14/09/2004 12:56:00.0 [SBP01   ] Fix32.thisnode.name3.A_CV set to Dolomita by SC4BP01::BATCH PLANT OPERATOR                         
14/09/2004 12:56:00.0 [SBP01   ] Fix32.thisnode.name4.A_CV set to Calcario by SC4BP01::BATCH PLANT OPERATOR                         
14/09/2004 12:56:00.0 [SBP01   ] Fix32.thisnode.name5.A_CV set to Reserva by SC4BP01::BATCH PLANT OPERATOR                          
14/09/2004 12:56:00.0 [SBP01   ] Fix32.thisnode.name6.A_CV set to Barrilha by SC4BP01::BATCH PLANT OPERATOR                         
14/09/2004 12:56:00.0 [SBP01   ] Fix32.thisnode.name7.A_CV set to Feldspato by SC4BP01::BATCH PLANT OPERATOR                        
14/09/2004 12:56:00.0 [SBP01   ] Fix32.thisnode.name8.A_CV set to Sulfato by SC4BP01::BATCH PLANT OPERATOR                          
14/09/2004 12:56:00.1 [SBP01   ] Fix32.thisnode.name9.A_CV set to Po de EP by SC4BP01::BATCH PLANT OPERATOR                         
14/09/2004 12:56:00.1 [SBP01   ] Fix32.thisnode.name10.A_CV set to Grafite by SC4BP01::BATCH PLANT OPERATOR                         
14/09/2004 12:56:00.1 [SBP01   ] Fix32.thisnode.name11.A_CV set to Ferro by SC4BP01::BATCH PLANT OPERATOR                           
14/09/2004 12:56:00.1 [SBP01   ] Fix32.thisnode.name12.A_CV set to Nitrato by SC4BP01::BATCH PLANT OPERATOR                         
14/09/2004 12:56:00.1 [SBP01   ] Fix32.thisnode.name14.A_CV set to Selenio by SC4BP01::BATCH PLANT OPERATOR                         
14/09/2004 12:56:00.1 [SBP01   ] Fix32.thisnode.name15.A_CV set to Cobalto by SC4BP01::BATCH PLANT OPERATOR                         
14/09/2004 12:56:00.2 [SBP01   ] Fix32.thisnode.name16.A_CV set to Ferro by SC4BP01::BATCH PLANT OPERATOR                           
14/09/2004 12:56:00.2 [SBP01   ] Fix32.thisnode.name20.A_CV set to Caco by SC4BP01::BATCH PLANT OPERATOR                            
14/09/2004 12:56:00.2 [SBP01   ] Fix32.thisnode.name50.A_CV set to  gua by SC4BP01::BATCH PLANT OPERATOR                            
14/09/2004 12:56:00.2 [SBP01   ] Fix32.thisnode.name51.A_CV set to Vapor by SC4BP01::BATCH PLANT OPERATOR                           
14/09/2004 12:56:00.2 [SBP01   ] Fix32.thisnode.name201.A_CV set to Mst 1 seco by SC4BP01::BATCH PLANT OPERATOR                     
14/09/2004 12:56:00.3 [SBP01   ] Fix32.thisnode.name202.A_CV set to Mst 2 seco by SC4BP01::BATCH PLANT OPERATOR                     
14/09/2004 12:56:00.3 [SBP01   ] Fix32.thisnode.name203.A_CV set to Mst 1  mido by SC4BP01::BATCH PLANT OPERATOR                    
14/09/2004 12:56:00.3 [SBP01   ] Fix32.thisnode.name204.A_CV set to Mst 2  mido by SC4BP01::BATCH PLANT OPERATOR                    
14/09/2004 13:00:01.0 [SBP01   ] Fix32.thisnode.name1.A_CV set to Areia 1 by SC4BP01::BATCH PLANT OPERATOR                          
14/09/2004 13:00:01.1 [SBP01   ] Fix32.thisnode.name2.A_CV set to Areia 2 by SC4BP01::BATCH PLANT OPERATOR                          
14/09/2004 13:00:01.1 [SBP01   ] Fix32.thisnode.name3.A_CV set to Dolomita by SC4BP01::BATCH PLANT OPERATOR                         
14/09/2004 13:00:01.1 [SBP01   ] Fix32.thisnode.name4.A_CV set to Calcario by SC4BP01::BATCH PLANT OPERATOR                         
14/09/2004 13:00:01.1 [SBP01   ] Fix32.thisnode.name5.A_CV set to Reserva by SC4BP01::BATCH PLANT OPERATOR                          
14/09/2004 13:00:01.2 [SBP01   ] Fix32.thisnode.name6.A_CV set to Barrilha by SC4BP01::BATCH PLANT OPERATOR                         
14/09/2004 13:00:01.2 [SBP01   ] Fix32.thisnode.name7.A_CV set to Feldspato by SC4BP01::BATCH PLANT OPERATOR                        
14/09/2004 13:00:01.2 [SBP01   ] Fix32.thisnode.name8.A_CV set to Sulfato by SC4BP01::BATCH PLANT OPERATOR                          
14/09/2004 13:00:01.2 [SBP01   ] Fix32.thisnode.name9.A_CV set to Po de EP by SC4BP01::BATCH PLANT OPERATOR                         
14/09/2004 13:00:01.2 [SBP01   ] Fix32.thisnode.name10.A_CV set to Grafite by SC4BP01::BATCH PLANT OPERATOR                         
14/09/2004 13:00:01.2 [SBP01   ] Fix32.thisnode.name11.A_CV set to Ferro by SC4BP01::BATCH PLANT OPERATOR                           
14/09/2004 13:00:01.3 [SBP01   ] Fix32.thisnode.name12.A_CV set to Nitrato by SC4BP01::BATCH PLANT OPERATOR                         
14/09/2004 13:00:01.3 [SBP01   ] Fix32.thisnode.name14.A_CV set to Selenio by SC4BP01::BATCH PLANT OPERATOR                         
14/09/2004 13:00:01.3 [SBP01   ] Fix32.thisnode.name15.A_CV set to Cobalto by SC4BP01::BATCH PLANT OPERATOR                         
14/09/2004 13:00:01.3 [SBP01   ] Fix32.thisnode.name16.A_CV set to Ferro by SC4BP01::BATCH PLANT OPERATOR                           
14/09/2004 13:00:01.3 [SBP01   ] Fix32.thisnode.name20.A_CV set to Caco by SC4BP01::BATCH PLANT OPERATOR                            
14/09/2004 13:00:01.4 [SBP01   ] Fix32.thisnode.name50.A_CV set to  gua by SC4BP01::BATCH PLANT OPERATOR                            
14/09/2004 13:00:01.4 [SBP01   ] Fix32.thisnode.name51.A_CV set to Vapor by SC4BP01::BATCH PLANT OPERATOR                           
14/09/2004 13:00:01.4 [SBP01   ] Fix32.thisnode.name201.A_CV set to Mst 1 seco by SC4BP01::BATCH PLANT OPERATOR                     
14/09/2004 13:00:01.4 [SBP01   ] Fix32.thisnode.name202.A_CV set to Mst 2 seco by SC4BP01::BATCH PLANT OPERATOR                     
14/09/2004 13:00:01.5 [SBP01   ] Fix32.thisnode.name203.A_CV set to Mst 1  mido by SC4BP01::BATCH PLANT OPERATOR                    
14/09/2004 13:00:01.5 [SBP01   ] Fix32.thisnode.name204.A_CV set to Mst 2  mido by SC4BP01::BATCH PLANT OPERATOR                    
14/09/2004 13:03:57.0 [SCE07   ] EDGE_SYSTEM_AUTO_STRAIN        CFN             ALARM      Stress: Edge Stress Water in Manual     
14/09/2004 13:04:00.0 [SBP01   ] Fix32.thisnode.name1.A_CV set to Areia 1 by SC4BP01::BATCH PLANT OPERATOR                          
14/09/2004 13:04:00.0 [SBP01   ] Fix32.thisnode.name2.A_CV set to Areia 2 by SC4BP01::BATCH PLANT OPERATOR                          
14/09/2004 13:04:00.0 [SBP01   ] Fix32.thisnode.name3.A_CV set to Dolomita by SC4BP01::BATCH PLANT OPERATOR                         
14/09/2004 13:04:00.0 [SBP01   ] Fix32.thisnode.name4.A_CV set to Calcario by SC4BP01::BATCH PLANT OPERATOR                         
14/09/2004 13:04:00.0 [SBP01   ] Fix32.thisnode.name5.A_CV set to Reserva by SC4BP01::BATCH PLANT OPERATOR                          
14/09/2004 13:04:00.0 [SBP01   ] Fix32.thisnode.name6.A_CV set to Barrilha by SC4BP01::BATCH PLANT OPERATOR                         
14/09/2004 13:04:00.0 [SBP01   ] Fix32.thisnode.name7.A_CV set to Feldspato by SC4BP01::BATCH PLANT OPERATOR                        
14/09/2004 13:04:00.1 [SBP01   ] Fix32.thisnode.name8.A_CV set to Sulfato by SC4BP01::BATCH PLANT OPERATOR                          
14/09/2004 13:04:00.1 [SBP01   ] Fix32.thisnode.name9.A_CV set to Po de EP by SC4BP01::BATCH PLANT OPERATOR                         
14/09/2004 13:04:00.1 [SBP01   ] Fix32.thisnode.name10.A_CV set to Grafite by SC4BP01::BATCH PLANT OPERATOR                         
14/09/2004 13:04:00.1 [SBP01   ] Fix32.thisnode.name11.A_CV set to Ferro by SC4BP01::BATCH PLANT OPERATOR                           
14/09/2004 13:04:00.1 [SBP01   ] Fix32.thisnode.name12.A_CV set to Nitrato by SC4BP01::BATCH PLANT OPERATOR                         
14/09/2004 13:04:00.1 [SBP01   ] Fix32.thisnode.name14.A_CV set to Selenio by SC4BP01::BATCH PLANT OPERATOR                         
14/09/2004 13:04:00.2 [SBP01   ] Fix32.thisnode.name15.A_CV set to Cobalto by SC4BP01::BATCH PLANT OPERATOR                         
14/09/2004 13:04:00.2 [SBP01   ] Fix32.thisnode.name16.A_CV set to Ferro by SC4BP01::BATCH PLANT OPERATOR                           
14/09/2004 13:04:00.2 [SBP01   ] Fix32.thisnode.name20.A_CV set to Caco by SC4BP01::BATCH PLANT OPERATOR                            
14/09/2004 13:04:00.2 [SBP01   ] Fix32.thisnode.name50.A_CV set to  gua by SC4BP01::BATCH PLANT OPERATOR                            
14/09/2004 13:04:00.2 [SBP01   ] Fix32.thisnode.name51.A_CV set to Vapor by SC4BP01::BATCH PLANT OPERATOR                           
14/09/2004 13:04:00.2 [SBP01   ] Fix32.thisnode.name201.A_CV set to Mst 1 seco by SC4BP01::BATCH PLANT OPERATOR                     
14/09/2004 13:04:00.2 [SBP01   ] Fix32.thisnode.name202.A_CV set to Mst 2 seco by SC4BP01::BATCH PLANT OPERATOR                     
14/09/2004 13:04:00.2 [SBP01   ] Fix32.thisnode.name203.A_CV set to Mst 1  mido by SC4BP01::BATCH PLANT OPERATOR                    
14/09/2004 13:04:00.3 [SBP01   ] Fix32.thisnode.name204.A_CV set to Mst 2  mido by SC4BP01::BATCH PLANT OPERATOR                    
14/09/2004 13:07:59.9 [SBP01   ] Fix32.thisnode.name1.A_CV set to Areia 1 by SC4BP01::BATCH PLANT OPERATOR                          
14/09/2004 13:08:00.0 [SBP01   ] Fix32.thisnode.name2.A_CV set to Areia 2 by SC4BP01::BATCH PLANT OPERATOR                          
14/09/2004 13:08:00.0 [SBP01   ] Fix32.thisnode.name3.A_CV set to Dolomita by SC4BP01::BATCH PLANT OPERATOR                         
14/09/2004 13:08:00.0 [SBP01   ] Fix32.thisnode.name4.A_CV set to Calcario by SC4BP01::BATCH PLANT OPERATOR                         
14/09/2004 13:08:00.0 [SBP01   ] Fix32.thisnode.name5.A_CV set to Reserva by SC4BP01::BATCH PLANT OPERATOR                          
14/09/2004 13:08:00.0 [SBP01   ] Fix32.thisnode.name6.A_CV set to Barrilha by SC4BP01::BATCH PLANT OPERATOR                         
14/09/2004 13:08:00.0 [SBP01   ] Fix32.thisnode.name7.A_CV set to Feldspato by SC4BP01::BATCH PLANT OPERATOR                        
14/09/2004 13:08:00.1 [SBP01   ] Fix32.thisnode.name8.A_CV set to Sulfato by SC4BP01::BATCH PLANT OPERATOR                          
14/09/2004 13:08:00.1 [SBP01   ] Fix32.thisnode.name9.A_CV set to Po de EP by SC4BP01::BATCH PLANT OPERATOR                         
14/09/2004 13:08:00.1 [SBP01   ] Fix32.thisnode.name10.A_CV set to Grafite by SC4BP01::BATCH PLANT OPERATOR                         
14/09/2004 13:08:00.1 [SBP01   ] Fix32.thisnode.name11.A_CV set to Ferro by SC4BP01::BATCH PLANT OPERATOR                           
14/09/2004 13:08:00.1 [SBP01   ] Fix32.thisnode.name12.A_CV set to Nitrato by SC4BP01::BATCH PLANT OPERATOR                         
14/09/2004 13:08:00.1 [SBP01   ] Fix32.thisnode.name14.A_CV set to Selenio by SC4BP01::BATCH PLANT OPERATOR                         
14/09/2004 13:08:00.2 [SBP01   ] Fix32.thisnode.name15.A_CV set to Cobalto by SC4BP01::BATCH PLANT OPERATOR                         
14/09/2004 13:08:00.2 [SBP01   ] Fix32.thisnode.name16.A_CV set to Ferro by SC4BP01::BATCH PLANT OPERATOR                           
14/09/2004 13:08:00.2 [SBP01   ] Fix32.thisnode.name20.A_CV set to Caco by SC4BP01::BATCH PLANT OPERATOR                            
14/09/2004 13:08:00.2 [SBP01   ] Fix32.thisnode.name50.A_CV set to  gua by SC4BP01::BATCH PLANT OPERATOR                            
14/09/2004 13:08:00.2 [SBP01   ] Fix32.thisnode.name51.A_CV set to Vapor by SC4BP01::BATCH PLANT OPERATOR                           
14/09/2004 13:08:00.2 [SBP01   ] Fix32.thisnode.name201.A_CV set to Mst 1 seco by SC4BP01::BATCH PLANT OPERATOR                     
14/09/2004 13:08:00.3 [SBP01   ] Fix32.thisnode.name202.A_CV set to Mst 2 seco by SC4BP01::BATCH PLANT OPERATOR                     
14/09/2004 13:08:00.3 [SBP01   ] Fix32.thisnode.name203.A_CV set to Mst 1  mido by SC4BP01::BATCH PLANT OPERATOR                    
14/09/2004 13:08:00.3 [SBP01   ] Fix32.thisnode.name204.A_CV set to Mst 2  mido by SC4BP01::BATCH PLANT OPERATOR                    
14/09/2004 13:12:00.0 [SBP01   ] Fix32.thisnode.name1.A_CV set to Areia 1 by SC4BP01::BATCH PLANT OPERATOR                          
14/09/2004 13:12:00.0 [SBP01   ] Fix32.thisnode.name2.A_CV set to Areia 2 by SC4BP01::BATCH PLANT OPERATOR                          
14/09/2004 13:12:00.0 [SBP01   ] Fix32.thisnode.name3.A_CV set to Dolomita by SC4BP01::BATCH PLANT OPERATOR                         
14/09/2004 13:12:00.0 [SBP01   ] Fix32.thisnode.name4.A_CV set to Calcario by SC4BP01::BATCH PLANT OPERATOR                         
14/09/2004 13:12:00.1 [SBP01   ] Fix32.thisnode.name5.A_CV set to Reserva by SC4BP01::BATCH PLANT OPERATOR                          
14/09/2004 13:12:00.1 [SBP01   ] Fix32.thisnode.name6.A_CV set to Barrilha by SC4BP01::BATCH PLANT OPERATOR                         
14/09/2004 13:12:00.1 [SBP01   ] Fix32.thisnode.name7.A_CV set to Feldspato by SC4BP01::BATCH PLANT OPERATOR                        
14/09/2004 13:12:00.1 [SBP01   ] Fix32.thisnode.name8.A_CV set to Sulfato by SC4BP01::BATCH PLANT OPERATOR                          
14/09/2004 13:12:00.1 [SBP01   ] Fix32.thisnode.name9.A_CV set to Po de EP by SC4BP01::BATCH PLANT OPERATOR                         
14/09/2004 13:12:00.1 [SBP01   ] Fix32.thisnode.name10.A_CV set to Grafite by SC4BP01::BATCH PLANT OPERATOR                         
14/09/2004 13:12:00.2 [SBP01   ] Fix32.thisnode.name11.A_CV set to Ferro by SC4BP01::BATCH PLANT OPERATOR                           
14/09/2004 13:12:00.2 [SBP01   ] Fix32.thisnode.name12.A_CV set to Nitrato by SC4BP01::BATCH PLANT OPERATOR                         
14/09/2004 13:12:00.2 [SBP01   ] Fix32.thisnode.name14.A_CV set to Selenio by SC4BP01::BATCH PLANT OPERATOR                         
14/09/2004 13:12:00.2 [SBP01   ] Fix32.thisnode.name15.A_CV set to Cobalto by SC4BP01::BATCH PLANT OPERATOR                         
14/09/2004 13:12:00.2 [SBP01   ] Fix32.thisnode.name16.A_CV set to Ferro by SC4BP01::BATCH PLANT OPERATOR                           
14/09/2004 13:12:00.2 [SBP01   ] Fix32.thisnode.name20.A_CV set to Caco by SC4BP01::BATCH PLANT OPERATOR                            
14/09/2004 13:12:00.2 [SBP01   ] Fix32.thisnode.name50.A_CV set to  gua by SC4BP01::BATCH PLANT OPERATOR                            
14/09/2004 13:12:00.3 [SBP01   ] Fix32.thisnode.name51.A_CV set to Vapor by SC4BP01::BATCH PLANT OPERATOR                           
14/09/2004 13:12:00.3 [SBP01   ] Fix32.thisnode.name201.A_CV set to Mst 1 seco by SC4BP01::BATCH PLANT OPERATOR                     
14/09/2004 13:12:00.3 [SBP01   ] Fix32.thisnode.name202.A_CV set to Mst 2 seco by SC4BP01::BATCH PLANT OPERATOR                     
14/09/2004 13:12:00.3 [SBP01   ] Fix32.thisnode.name203.A_CV set to Mst 1  mido by SC4BP01::BATCH PLANT OPERATOR                    
14/09/2004 13:12:00.3 [SBP01   ] Fix32.thisnode.name204.A_CV set to Mst 2  mido by SC4BP01::BATCH PLANT OPERATOR                    
14/09/2004 13:14:26.5 [SCE01   ] Fix32.SCE01.PAT15_FECR_L.F_CV set to 1 by WC4CE02::COLD END OPERATOR                               
14/09/2004 13:14:29.9 [SCE01   ] Fix32.SCE01.PAT15_FECR_R.F_CV set to 1 by WC4CE02::COLD END OPERATOR                               
14/09/2004 13:15:19.8 [SCE01   ] Fix32.SCE01.PAT15_LIN_ENAB.F_CV set to 1 by WC4CE02::COLD END OPERATOR                             
14/09/2004 13:15:20.2 [SCE01   ] Fix32.SCE01.PAT15_NREQ.F_CV set to 1 by WC4CE02::COLD END OPERATOR                                 
14/09/2004 13:15:20.6 [SCE01   ] Fix32.SCE01.PAT15_PRIO_S.F_CV set to 1 by WC4CE02::COLD END OPERATOR                               
14/09/2004 13:15:59.9 [SBP01   ] Fix32.thisnode.name1.A_CV set to Areia 1 by SC4BP01::BATCH PLANT OPERATOR                          
14/09/2004 13:16:00.0 [SBP01   ] Fix32.thisnode.name2.A_CV set to Areia 2 by SC4BP01::BATCH PLANT OPERATOR                          
14/09/2004 13:16:00.0 [SBP01   ] Fix32.thisnode.name3.A_CV set to Dolomita by SC4BP01::BATCH PLANT OPERATOR                         
14/09/2004 13:16:00.0 [SBP01   ] Fix32.thisnode.name4.A_CV set to Calcario by SC4BP01::BATCH PLANT OPERATOR                         
14/09/2004 13:16:00.0 [SBP01   ] Fix32.thisnode.name5.A_CV set to Reserva by SC4BP01::BATCH PLANT OPERATOR                          
14/09/2004 13:16:00.0 [SBP01   ] Fix32.thisnode.name6.A_CV set to Barrilha by SC4BP01::BATCH PLANT OPERATOR                         
14/09/2004 13:16:00.0 [SBP01   ] Fix32.thisnode.name7.A_CV set to Feldspato by SC4BP01::BATCH PLANT OPERATOR                        
14/09/2004 13:16:00.1 [SBP01   ] Fix32.thisnode.name8.A_CV set to Sulfato by SC4BP01::BATCH PLANT OPERATOR                          
14/09/2004 13:16:00.1 [SBP01   ] Fix32.thisnode.name9.A_CV set to Po de EP by SC4BP01::BATCH PLANT OPERATOR                         
14/09/2004 13:16:00.1 [SBP01   ] Fix32.thisnode.name10.A_CV set to Grafite by SC4BP01::BATCH PLANT OPERATOR                         
14/09/2004 13:16:00.1 [SBP01   ] Fix32.thisnode.name11.A_CV set to Ferro by SC4BP01::BATCH PLANT OPERATOR                           
14/09/2004 13:16:00.1 [SBP01   ] Fix32.thisnode.name12.A_CV set to Nitrato by SC4BP01::BATCH PLANT OPERATOR                         
14/09/2004 13:16:00.1 [SBP01   ] Fix32.thisnode.name14.A_CV set to Selenio by SC4BP01::BATCH PLANT OPERATOR                         
14/09/2004 13:16:00.1 [SBP01   ] Fix32.thisnode.name15.A_CV set to Cobalto by SC4BP01::BATCH PLANT OPERATOR                         
14/09/2004 13:16:00.2 [SBP01   ] Fix32.thisnode.name16.A_CV set to Ferro by SC4BP01::BATCH PLANT OPERATOR                           
14/09/2004 13:16:00.2 [SBP01   ] Fix32.thisnode.name20.A_CV set to Caco by SC4BP01::BATCH PLANT OPERATOR                            
14/09/2004 13:16:00.2 [SBP01   ] Fix32.thisnode.name50.A_CV set to  gua by SC4BP01::BATCH PLANT OPERATOR                            
14/09/2004 13:16:00.2 [SBP01   ] Fix32.thisnode.name51.A_CV set to Vapor by SC4BP01::BATCH PLANT OPERATOR                           
14/09/2004 13:16:00.2 [SBP01   ] Fix32.thisnode.name201.A_CV set to Mst 1 seco by SC4BP01::BATCH PLANT OPERATOR                     
14/09/2004 13:16:00.3 [SBP01   ] Fix32.thisnode.name202.A_CV set to Mst 2 seco by SC4BP01::BATCH PLANT OPERATOR                     
14/09/2004 13:16:00.3 [SBP01   ] Fix32.thisnode.name203.A_CV set to Mst 1  mido by SC4BP01::BATCH PLANT OPERATOR                    
14/09/2004 13:16:00.3 [SBP01   ] Fix32.thisnode.name204.A_CV set to Mst 2  mido by SC4BP01::BATCH PLANT OPERATOR                    
14/09/2004 13:19:47.8 [SCE01   ] CE_M347_ANM_SAFETY_AREA        CFN             CLOSE      CE M347 SAFETY AREA                     
14/09/2004 13:19:50.3 [SCE01   ] CE_M347_ANM_SAFETY_AREA        CFN             CLOSE      CE M347 SAFETY AREA                     
14/09/2004 13:20:00.4 [SBP01   ] Fix32.thisnode.name1.A_CV set to Areia 1 by SC4BP01::BATCH PLANT OPERATOR                          
14/09/2004 13:20:00.4 [SBP01   ] Fix32.thisnode.name2.A_CV set to Areia 2 by SC4BP01::BATCH PLANT OPERATOR                          
14/09/2004 13:20:00.4 [SBP01   ] Fix32.thisnode.name3.A_CV set to Dolomita by SC4BP01::BATCH PLANT OPERATOR                         
14/09/2004 13:20:00.4 [SBP01   ] Fix32.thisnode.name4.A_CV set to Calcario by SC4BP01::BATCH PLANT OPERATOR                         
14/09/2004 13:20:00.5 [SBP01   ] Fix32.thisnode.name5.A_CV set to Reserva by SC4BP01::BATCH PLANT OPERATOR                          
14/09/2004 13:20:00.5 [SBP01   ] Fix32.thisnode.name6.A_CV set to Barrilha by SC4BP01::BATCH PLANT OPERATOR                         
14/09/2004 13:20:00.5 [SBP01   ] Fix32.thisnode.name7.A_CV set to Feldspato by SC4BP01::BATCH PLANT OPERATOR                        
14/09/2004 13:20:00.5 [SBP01   ] Fix32.thisnode.name8.A_CV set to Sulfato by SC4BP01::BATCH PLANT OPERATOR                          
14/09/2004 13:20:00.5 [SBP01   ] Fix32.thisnode.name9.A_CV set to Po de EP by SC4BP01::BATCH PLANT OPERATOR                         
14/09/2004 13:20:00.6 [SBP01   ] Fix32.thisnode.name10.A_CV set to Grafite by SC4BP01::BATCH PLANT OPERATOR                         
14/09/2004 13:20:00.6 [SBP01   ] Fix32.thisnode.name11.A_CV set to Ferro by SC4BP01::BATCH PLANT OPERATOR                           
14/09/2004 13:20:00.6 [SBP01   ] Fix32.thisnode.name12.A_CV set to Nitrato by SC4BP01::BATCH PLANT OPERATOR                         
14/09/2004 13:20:00.6 [SBP01   ] Fix32.thisnode.name14.A_CV set to Selenio by SC4BP01::BATCH PLANT OPERATOR                         
14/09/2004 13:20:00.6 [SBP01   ] Fix32.thisnode.name15.A_CV set to Cobalto by SC4BP01::BATCH PLANT OPERATOR                         
14/09/2004 13:20:00.6 [SBP01   ] Fix32.thisnode.name16.A_CV set to Ferro by SC4BP01::BATCH PLANT OPERATOR                           
14/09/2004 13:20:00.6 [SBP01   ] Fix32.thisnode.name20.A_CV set to Caco by SC4BP01::BATCH PLANT OPERATOR                            
14/09/2004 13:20:00.7 [SBP01   ] Fix32.thisnode.name50.A_CV set to  gua by SC4BP01::BATCH PLANT OPERATOR                            
14/09/2004 13:20:00.7 [SBP01   ] Fix32.thisnode.name51.A_CV set to Vapor by SC4BP01::BATCH PLANT OPERATOR                           
14/09/2004 13:20:00.7 [SBP01   ] Fix32.thisnode.name201.A_CV set to Mst 1 seco by SC4BP01::BATCH PLANT OPERATOR                     
14/09/2004 13:20:00.7 [SBP01   ] Fix32.thisnode.name202.A_CV set to Mst 2 seco by SC4BP01::BATCH PLANT OPERATOR                     
14/09/2004 13:20:00.7 [SBP01   ] Fix32.thisnode.name203.A_CV set to Mst 1  mido by SC4BP01::BATCH PLANT OPERATOR                    
14/09/2004 13:20:00.7 [SBP01   ] Fix32.thisnode.name204.A_CV set to Mst 2  mido by SC4BP01::BATCH PLANT OPERATOR                    
14/09/2004 13:20:37.8 [SCE01   ] CE_M347_ANM_SAFETY_AREA        OK               OPEN      CE M347 SAFETY AREA                     
14/09/2004 13:20:39.3 [SCE01   ] CE_M347_ANM_SAFETY_AREA        OK               OPEN      CE M347 SAFETY AREA                     
14/09/2004 13:21:09.2 [SBP01   ] Fix32.sbp01.alltime1.f_cv set to 1 by WC4BP01::BATCH PLANT OPERATOR                                
14/09/2004 13:21:29.7 WC4BP01 SECURITY VIOLATION: BATCH PLANT OPERATOR access to APPLICATION FEATURE System User Login              
14/09/2004 13:21:30.3 BATCH PLANT OPERATOR  logged out as Application User                                                          
14/09/2004 13:21:44.6 SYSTEM ADMINISTRATOR  logged in as Application User                                                           
14/09/2004 13:23:59.9 [SBP01   ] Fix32.thisnode.name1.A_CV set to Areia 1 by SC4BP01::BATCH PLANT OPERATOR                          
14/09/2004 13:24:00.0 [SBP01   ] Fix32.thisnode.name2.A_CV set to Areia 2 by SC4BP01::BATCH PLANT OPERATOR                          
14/09/2004 13:24:00.0 [SBP01   ] Fix32.thisnode.name3.A_CV set to Dolomita by SC4BP01::BATCH PLANT OPERATOR                         
14/09/2004 13:24:00.0 [SBP01   ] Fix32.thisnode.name4.A_CV set to Calcario by SC4BP01::BATCH PLANT OPERATOR                         
14/09/2004 13:24:00.0 [SBP01   ] Fix32.thisnode.name5.A_CV set to Reserva by SC4BP01::BATCH PLANT OPERATOR                          
14/09/2004 13:24:00.0 [SBP01   ] Fix32.thisnode.name6.A_CV set to Barrilha by SC4BP01::BATCH PLANT OPERATOR                         
14/09/2004 13:24:00.0 [SBP01   ] Fix32.thisnode.name7.A_CV set to Feldspato by SC4BP01::BATCH PLANT OPERATOR                        
14/09/2004 13:24:00.1 [SBP01   ] Fix32.thisnode.name8.A_CV set to Sulfato by SC4BP01::BATCH PLANT OPERATOR                          
14/09/2004 13:24:00.1 [SBP01   ] Fix32.thisnode.name9.A_CV set to Po de EP by SC4BP01::BATCH PLANT OPERATOR                         
14/09/2004 13:24:00.1 [SBP01   ] Fix32.thisnode.name10.A_CV set to Grafite by SC4BP01::BATCH PLANT OPERATOR                         
14/09/2004 13:24:00.1 [SBP01   ] Fix32.thisnode.name11.A_CV set to Ferro by SC4BP01::BATCH PLANT OPERATOR                           
14/09/2004 13:24:00.1 [SBP01   ] Fix32.thisnode.name12.A_CV set to Nitrato by SC4BP01::BATCH PLANT OPERATOR                         
14/09/2004 13:24:00.1 [SBP01   ] Fix32.thisnode.name14.A_CV set to Selenio by SC4BP01::BATCH PLANT OPERATOR                         
14/09/2004 13:24:00.1 [SBP01   ] Fix32.thisnode.name15.A_CV set to Cobalto by SC4BP01::BATCH PLANT OPERATOR                         
14/09/2004 13:24:00.1 [SBP01   ] Fix32.thisnode.name16.A_CV set to Ferro by SC4BP01::BATCH PLANT OPERATOR                           
14/09/2004 13:24:00.1 [SBP01   ] Fix32.thisnode.name20.A_CV set to Caco by SC4BP01::BATCH PLANT OPERATOR                            
14/09/2004 13:24:00.2 [SBP01   ] Fix32.thisnode.name50.A_CV set to  gua by SC4BP01::BATCH PLANT OPERATOR                            
14/09/2004 13:24:00.2 [SBP01   ] Fix32.thisnode.name51.A_CV set to Vapor by SC4BP01::BATCH PLANT OPERATOR                           
14/09/2004 13:24:00.2 [SBP01   ] Fix32.thisnode.name201.A_CV set to Mst 1 seco by SC4BP01::BATCH PLANT OPERATOR                     
14/09/2004 13:24:00.2 [SBP01   ] Fix32.thisnode.name202.A_CV set to Mst 2 seco by SC4BP01::BATCH PLANT OPERATOR                     
14/09/2004 13:24:00.2 [SBP01   ] Fix32.thisnode.name203.A_CV set to Mst 1  mido by SC4BP01::BATCH PLANT OPERATOR                    
14/09/2004 13:24:00.2 [SBP01   ] Fix32.thisnode.name204.A_CV set to Mst 2  mido by SC4BP01::BATCH PLANT OPERATOR                    
14/09/2004 13:24:11.3 SYSTEM ADMINISTRATOR  logged out as Application User                                                          
14/09/2004 13:24:17.8 BATCH PLANT OPERATOR  logged in as Application User                                                           
14/09/2004 13:26:44.4 [SHE01   ] TT_T213                        OK            621.813 Deg  Pyro Exit End Centre Temp.              
14/09/2004 13:26:44.4 [SHE01   ] '2#T103_30:TT_T213'            HiLevel  Alarm Off   621.81 Deg C    Pyro Exit End Centre Temp.     
14/09/2004 13:27:59.9 [SBP01   ] Fix32.thisnode.name1.A_CV set to Areia 1 by SC4BP01::BATCH PLANT OPERATOR                          
14/09/2004 13:28:00.0 [SBP01   ] Fix32.thisnode.name2.A_CV set to Areia 2 by SC4BP01::BATCH PLANT OPERATOR                          
14/09/2004 13:28:00.0 [SBP01   ] Fix32.thisnode.name3.A_CV set to Dolomita by SC4BP01::BATCH PLANT OPERATOR                         
14/09/2004 13:28:00.0 [SBP01   ] Fix32.thisnode.name4.A_CV set to Calcario by SC4BP01::BATCH PLANT OPERATOR                         
14/09/2004 13:28:00.0 [SBP01   ] Fix32.thisnode.name5.A_CV set to Reserva by SC4BP01::BATCH PLANT OPERATOR                          
14/09/2004 13:28:00.1 [SBP01   ] Fix32.thisnode.name6.A_CV set to Barrilha by SC4BP01::BATCH PLANT OPERATOR                         
14/09/2004 13:28:00.1 [SBP01   ] Fix32.thisnode.name7.A_CV set to Feldspato by SC4BP01::BATCH PLANT OPERATOR                        
14/09/2004 13:28:00.1 [SBP01   ] Fix32.thisnode.name8.A_CV set to Sulfato by SC4BP01::BATCH PLANT OPERATOR                          
14/09/2004 13:28:00.1 [SBP01   ] Fix32.thisnode.name9.A_CV set to Po de EP by SC4BP01::BATCH PLANT OPERATOR                         
14/09/2004 13:28:00.2 [SBP01   ] Fix32.thisnode.name10.A_CV set to Grafite by SC4BP01::BATCH PLANT OPERATOR                         
14/09/2004 13:28:00.2 [SBP01   ] Fix32.thisnode.name11.A_CV set to Ferro by SC4BP01::BATCH PLANT OPERATOR                           
14/09/2004 13:28:00.2 [SBP01   ] Fix32.thisnode.name12.A_CV set to Nitrato by SC4BP01::BATCH PLANT OPERATOR                         
14/09/2004 13:28:00.2 [SBP01   ] Fix32.thisnode.name14.A_CV set to Selenio by SC4BP01::BATCH PLANT OPERATOR                         
14/09/2004 13:28:00.2 [SBP01   ] Fix32.thisnode.name15.A_CV set to Cobalto by SC4BP01::BATCH PLANT OPERATOR                         
14/09/2004 13:28:00.3 [SBP01   ] Fix32.thisnode.name16.A_CV set to Ferro by SC4BP01::BATCH PLANT OPERATOR                           
14/09/2004 13:28:00.3 [SBP01   ] Fix32.thisnode.name20.A_CV set to Caco by SC4BP01::BATCH PLANT OPERATOR                            
14/09/2004 13:28:00.3 [SBP01   ] Fix32.thisnode.name50.A_CV set to  gua by SC4BP01::BATCH PLANT OPERATOR                            
14/09/2004 13:28:00.3 [SBP01   ] Fix32.thisnode.name51.A_CV set to Vapor by SC4BP01::BATCH PLANT OPERATOR                           
14/09/2004 13:28:00.3 [SBP01   ] Fix32.thisnode.name201.A_CV set to Mst 1 seco by SC4BP01::BATCH PLANT OPERATOR                     
14/09/2004 13:28:00.3 [SBP01   ] Fix32.thisnode.name202.A_CV set to Mst 2 seco by SC4BP01::BATCH PLANT OPERATOR                     
14/09/2004 13:28:00.3 [SBP01   ] Fix32.thisnode.name203.A_CV set to Mst 1  mido by SC4BP01::BATCH PLANT OPERATOR                    
14/09/2004 13:28:00.3 [SBP01   ] Fix32.thisnode.name204.A_CV set to Mst 2  mido by SC4BP01::BATCH PLANT OPERATOR                    
14/09/2004 13:28:55.8 [SBP01   ] Fix32.SBP01.PCU1_2_ALARM_02.F_CV set to 0 by SC4BP01::BATCH PLANT OPERATOR                         
14/09/2004 13:29:06.8 [SBP01   ] S10_INTAKE_ALLOWED_FROM_PNM                        0      S10_intake_allowed_from_pnm             
14/09/2004 13:29:06.8 [SBP01   ] Fix32.SBP01.s10_intake_allowed_from_pnm.f_CV set to 0 by SC4BP01::BATCH PLANT OPERATOR             
14/09/2004 13:29:14.5 [SBP01   ] RH3_M1_ALARM_02 ALARM is acknowledged by SC4BP01::BATCH PLANT OPERATOR                             
14/09/2004 13:29:14.5 [SBP01   ] Fix32.SBP01.RH3_M1_ALARM_02.F_CV set to 0 by SC4BP01::BATCH PLANT OPERATOR                         
14/09/2004 13:29:18.3 [SBP01   ] PCU1_2_ALARM_WORD ALARM is acknowledged by SC4BP01::BATCH PLANT OPERATOR                           
14/09/2004 13:29:18.3 [SBP01   ] PCU1_2_ALARM_WORD ALARM is acknowledged by SC4BP01::BATCH PLANT OPERATOR                           
14/09/2004 13:29:18.6 [SBP01   ] RH3_M1_ALARM_WORD ALARM is acknowledged by SC4BP01::BATCH PLANT OPERATOR                           
14/09/2004 13:29:31.3 [SBP01   ] Fix32.SBP01.RH1_M1_ALARM_WORD.F_CV set to 0 by SC4BP01::BATCH PLANT OPERATOR                       
14/09/2004 13:29:41.4 [SBP01   ] RH1_M1_ALARM_WORD ALARM is acknowledged by SC4BP01::BATCH PLANT OPERATOR                           
14/09/2004 13:29:41.4 [SBP01   ] RH1_M1_ALARM_WORD ALARM is acknowledged by SC4BP01::BATCH PLANT OPERATOR                           
14/09/2004 13:29:58.1 [SBP01   ] Fix32.sbp01.alltime1.f_cv set to 1 by SC4BP01::BATCH PLANT OPERATOR                                
14/09/2004 13:31:59.9 [SBP01   ] Fix32.thisnode.name1.A_CV set to Areia 1 by SC4BP01::BATCH PLANT OPERATOR                          
14/09/2004 13:31:59.9 [SBP01   ] Fix32.thisnode.name2.A_CV set to Areia 2 by SC4BP01::BATCH PLANT OPERATOR                          
14/09/2004 13:32:00.0 [SBP01   ] Fix32.thisnode.name3.A_CV set to Dolomita by SC4BP01::BATCH PLANT OPERATOR                         
14/09/2004 13:32:00.0 [SBP01   ] Fix32.thisnode.name4.A_CV set to Calcario by SC4BP01::BATCH PLANT OPERATOR                         
14/09/2004 13:32:00.0 [SBP01   ] Fix32.thisnode.name5.A_CV set to Reserva by SC4BP01::BATCH PLANT OPERATOR                          
14/09/2004 13:32:00.0 [SBP01   ] Fix32.thisnode.name6.A_CV set to Barrilha by SC4BP01::BATCH PLANT OPERATOR                         
14/09/2004 13:32:00.0 [SBP01   ] Fix32.thisnode.name7.A_CV set to Feldspato by SC4BP01::BATCH PLANT OPERATOR                        
14/09/2004 13:32:00.0 [SBP01   ] Fix32.thisnode.name8.A_CV set to Sulfato by SC4BP01::BATCH PLANT OPERATOR                          
14/09/2004 13:32:00.1 [SBP01   ] Fix32.thisnode.name9.A_CV set to Po de EP by SC4BP01::BATCH PLANT OPERATOR                         
14/09/2004 13:32:00.1 [SBP01   ] Fix32.thisnode.name10.A_CV set to Grafite by SC4BP01::BATCH PLANT OPERATOR                         
14/09/2004 13:32:00.1 [SBP01   ] Fix32.thisnode.name11.A_CV set to Ferro by SC4BP01::BATCH PLANT OPERATOR                           
14/09/2004 13:32:00.1 [SBP01   ] Fix32.thisnode.name12.A_CV set to Nitrato by SC4BP01::BATCH PLANT OPERATOR                         
14/09/2004 13:32:00.1 [SBP01   ] Fix32.thisnode.name14.A_CV set to Selenio by SC4BP01::BATCH PLANT OPERATOR                         
14/09/2004 13:32:00.1 [SBP01   ] Fix32.thisnode.name15.A_CV set to Cobalto by SC4BP01::BATCH PLANT OPERATOR                         
14/09/2004 13:32:00.1 [SBP01   ] Fix32.thisnode.name16.A_CV set to Ferro by SC4BP01::BATCH PLANT OPERATOR                           
14/09/2004 13:32:00.2 [SBP01   ] Fix32.thisnode.name20.A_CV set to Caco by SC4BP01::BATCH PLANT OPERATOR                            
14/09/2004 13:32:00.2 [SBP01   ] Fix32.thisnode.name50.A_CV set to  gua by SC4BP01::BATCH PLANT OPERATOR                            
14/09/2004 13:32:00.2 [SBP01   ] Fix32.thisnode.name51.A_CV set to Vapor by SC4BP01::BATCH PLANT OPERATOR                           
14/09/2004 13:32:00.2 [SBP01   ] Fix32.thisnode.name201.A_CV set to Mst 1 seco by SC4BP01::BATCH PLANT OPERATOR                     
14/09/2004 13:32:00.2 [SBP01   ] Fix32.thisnode.name202.A_CV set to Mst 2 seco by SC4BP01::BATCH PLANT OPERATOR                     
14/09/2004 13:32:00.2 [SBP01   ] Fix32.thisnode.name203.A_CV set to Mst 1  mido by SC4BP01::BATCH PLANT OPERATOR                    
14/09/2004 13:32:00.3 [SBP01   ] Fix32.thisnode.name204.A_CV set to Mst 2  mido by SC4BP01::BATCH PLANT OPERATOR                    
14/09/2004 13:35:53.8 [SBP01   ] S1_INTAKE_START_FROM_RH1                           1      S1_intake_start_from_rh1                
14/09/2004 13:35:53.9 [SBP01   ] Fix32.SBP01.s1_intake_start_from_rh1.f_CV set to 1 by SC4BP01::BATCH PLANT OPERATOR                
14/09/2004 13:35:59.9 [SBP01   ] Fix32.thisnode.name1.A_CV set to Areia 1 by SC4BP01::BATCH PLANT OPERATOR                          
14/09/2004 13:35:59.9 [SBP01   ] Fix32.thisnode.name2.A_CV set to Areia 2 by SC4BP01::BATCH PLANT OPERATOR                          
14/09/2004 13:36:00.0 [SBP01   ] Fix32.thisnode.name3.A_CV set to Dolomita by SC4BP01::BATCH PLANT OPERATOR                         
14/09/2004 13:36:00.0 [SBP01   ] Fix32.thisnode.name4.A_CV set to Calcario by SC4BP01::BATCH PLANT OPERATOR                         
14/09/2004 13:36:00.0 [SBP01   ] Fix32.thisnode.name5.A_CV set to Reserva by SC4BP01::BATCH PLANT OPERATOR                          
14/09/2004 13:36:00.0 [SBP01   ] Fix32.thisnode.name6.A_CV set to Barrilha by SC4BP01::BATCH PLANT OPERATOR                         
14/09/2004 13:36:00.0 [SBP01   ] Fix32.thisnode.name7.A_CV set to Feldspato by SC4BP01::BATCH PLANT OPERATOR                        
14/09/2004 13:36:00.0 [SBP01   ] Fix32.thisnode.name8.A_CV set to Sulfato by SC4BP01::BATCH PLANT OPERATOR                          
14/09/2004 13:36:00.0 [SBP01   ] Fix32.thisnode.name9.A_CV set to Po de EP by SC4BP01::BATCH PLANT OPERATOR                         
14/09/2004 13:36:00.0 [SBP01   ] Fix32.thisnode.name10.A_CV set to Grafite by SC4BP01::BATCH PLANT OPERATOR                         
14/09/2004 13:36:00.1 [SBP01   ] Fix32.thisnode.name11.A_CV set to Ferro by SC4BP01::BATCH PLANT OPERATOR                           
14/09/2004 13:36:00.1 [SBP01   ] Fix32.thisnode.name12.A_CV set to Nitrato by SC4BP01::BATCH PLANT OPERATOR                         
14/09/2004 13:36:00.1 [SBP01   ] Fix32.thisnode.name14.A_CV set to Selenio by SC4BP01::BATCH PLANT OPERATOR                         
14/09/2004 13:36:00.1 [SBP01   ] Fix32.thisnode.name15.A_CV set to Cobalto by SC4BP01::BATCH PLANT OPERATOR                         
14/09/2004 13:36:00.2 [SBP01   ] Fix32.thisnode.name16.A_CV set to Ferro by SC4BP01::BATCH PLANT OPERATOR                           
14/09/2004 13:36:00.2 [SBP01   ] Fix32.thisnode.name20.A_CV set to Caco by SC4BP01::BATCH PLANT OPERATOR                            
14/09/2004 13:36:00.2 [SBP01   ] Fix32.thisnode.name50.A_CV set to  gua by SC4BP01::BATCH PLANT OPERATOR                            
14/09/2004 13:36:00.2 [SBP01   ] Fix32.thisnode.name51.A_CV set to Vapor by SC4BP01::BATCH PLANT OPERATOR                           
14/09/2004 13:36:00.2 [SBP01   ] Fix32.thisnode.name201.A_CV set to Mst 1 seco by SC4BP01::BATCH PLANT OPERATOR                     
14/09/2004 13:36:00.3 [SBP01   ] Fix32.thisnode.name202.A_CV set to Mst 2 seco by SC4BP01::BATCH PLANT OPERATOR                     
14/09/2004 13:36:00.3 [SBP01   ] Fix32.thisnode.name203.A_CV set to Mst 1  mido by SC4BP01::BATCH PLANT OPERATOR                    
14/09/2004 13:36:00.3 [SBP01   ] Fix32.thisnode.name204.A_CV set to Mst 2  mido by SC4BP01::BATCH PLANT OPERATOR                    
14/09/2004 13:40:00.3 [SBP01   ] Fix32.thisnode.name1.A_CV set to Areia 1 by SC4BP01::BATCH PLANT OPERATOR                          
14/09/2004 13:40:00.4 [SBP01   ] Fix32.thisnode.name2.A_CV set to Areia 2 by SC4BP01::BATCH PLANT OPERATOR                          
14/09/2004 13:40:00.4 [SBP01   ] Fix32.thisnode.name3.A_CV set to Dolomita by SC4BP01::BATCH PLANT OPERATOR                         
14/09/2004 13:40:00.4 [SBP01   ] Fix32.thisnode.name4.A_CV set to Calcario by SC4BP01::BATCH PLANT OPERATOR                         
14/09/2004 13:40:00.4 [SBP01   ] Fix32.thisnode.name5.A_CV set to Reserva by SC4BP01::BATCH PLANT OPERATOR                          
14/09/2004 13:40:00.4 [SBP01   ] Fix32.thisnode.name6.A_CV set to Barrilha by SC4BP01::BATCH PLANT OPERATOR                         
14/09/2004 13:40:00.4 [SBP01   ] Fix32.thisnode.name7.A_CV set to Feldspato by SC4BP01::BATCH PLANT OPERATOR                        
14/09/2004 13:40:00.4 [SBP01   ] Fix32.thisnode.name8.A_CV set to Sulfato by SC4BP01::BATCH PLANT OPERATOR                          
14/09/2004 13:40:00.5 [SBP01   ] Fix32.thisnode.name9.A_CV set to Po de EP by SC4BP01::BATCH PLANT OPERATOR                         
14/09/2004 13:40:00.5 [SBP01   ] Fix32.thisnode.name10.A_CV set to Grafite by SC4BP01::BATCH PLANT OPERATOR                         
14/09/2004 13:40:00.5 [SBP01   ] Fix32.thisnode.name11.A_CV set to Ferro by SC4BP01::BATCH PLANT OPERATOR                           
14/09/2004 13:40:00.5 [SBP01   ] Fix32.thisnode.name12.A_CV set to Nitrato by SC4BP01::BATCH PLANT OPERATOR                         
14/09/2004 13:40:00.5 [SBP01   ] Fix32.thisnode.name14.A_CV set to Selenio by SC4BP01::BATCH PLANT OPERATOR                         
14/09/2004 13:40:00.5 [SBP01   ] Fix32.thisnode.name15.A_CV set to Cobalto by SC4BP01::BATCH PLANT OPERATOR                         
14/09/2004 13:40:00.5 [SBP01   ] Fix32.thisnode.name16.A_CV set to Ferro by SC4BP01::BATCH PLANT OPERATOR                           
14/09/2004 13:40:00.5 [SBP01   ] Fix32.thisnode.name20.A_CV set to Caco by SC4BP01::BATCH PLANT OPERATOR                            
14/09/2004 13:40:00.5 [SBP01   ] Fix32.thisnode.name50.A_CV set to  gua by SC4BP01::BATCH PLANT OPERATOR                            
14/09/2004 13:40:00.6 [SBP01   ] Fix32.thisnode.name51.A_CV set to Vapor by SC4BP01::BATCH PLANT OPERATOR                           
14/09/2004 13:40:00.6 [SBP01   ] Fix32.thisnode.name201.A_CV set to Mst 1 seco by SC4BP01::BATCH PLANT OPERATOR                     
14/09/2004 13:40:00.6 [SBP01   ] Fix32.thisnode.name202.A_CV set to Mst 2 seco by SC4BP01::BATCH PLANT OPERATOR                     
14/09/2004 13:40:00.6 [SBP01   ] Fix32.thisnode.name203.A_CV set to Mst 1  mido by SC4BP01::BATCH PLANT OPERATOR                    
14/09/2004 13:40:00.6 [SBP01   ] Fix32.thisnode.name204.A_CV set to Mst 2  mido by SC4BP01::BATCH PLANT OPERATOR                    
14/09/2004 13:41:50.0 [SCE01   ] Fix32.SCE01.Z700_M704_TYPE_OF_PRODUCTION.F_CV set to 2 by WC4CE03::COLD END OPERATOR               
14/09/2004 13:43:12.2 [SCE01   ] Fix32.sce01.Pat07_A_Send.F_cv set to 1 by WC4CE03::COLD END OPERATOR                               
14/09/2004 13:43:21.0 [SCE01   ] Fix32.sce01.Pat08_A_Send.F_cv set to 1 by WC4CE03::COLD END OPERATOR                               
14/09/2004 13:43:27.4 [SCE01   ] Fix32.SCE01.PAT07_LIN_ENAB.F_CV set to 1 by WC4CE03::COLD END OPERATOR                             
14/09/2004 13:43:29.5 [SCE01   ] Fix32.SCE01.PAT08_LIN_ENAB.F_CV set to 1 by WC4CE03::COLD END OPERATOR                             
14/09/2004 13:43:59.9 [SBP01   ] Fix32.thisnode.name1.A_CV set to Areia 1 by SC4BP01::BATCH PLANT OPERATOR                          
14/09/2004 13:43:59.9 [SBP01   ] Fix32.thisnode.name2.A_CV set to Areia 2 by SC4BP01::BATCH PLANT OPERATOR                          
14/09/2004 13:44:00.0 [SBP01   ] Fix32.thisnode.name3.A_CV set to Dolomita by SC4BP01::BATCH PLANT OPERATOR                         
14/09/2004 13:44:00.0 [SBP01   ] Fix32.thisnode.name4.A_CV set to Calcario by SC4BP01::BATCH PLANT OPERATOR                         
14/09/2004 13:44:00.0 [SBP01   ] Fix32.thisnode.name5.A_CV set to Reserva by SC4BP01::BATCH PLANT OPERATOR                          
14/09/2004 13:44:00.0 [SBP01   ] Fix32.thisnode.name6.A_CV set to Barrilha by SC4BP01::BATCH PLANT OPERATOR                         
14/09/2004 13:44:00.0 [SBP01   ] Fix32.thisnode.name7.A_CV set to Feldspato by SC4BP01::BATCH PLANT OPERATOR                        
14/09/2004 13:44:00.0 [SBP01   ] Fix32.thisnode.name8.A_CV set to Sulfato by SC4BP01::BATCH PLANT OPERATOR                          
14/09/2004 13:44:00.0 [SBP01   ] Fix32.thisnode.name9.A_CV set to Po de EP by SC4BP01::BATCH PLANT OPERATOR                         
14/09/2004 13:44:00.1 [SBP01   ] Fix32.thisnode.name10.A_CV set to Grafite by SC4BP01::BATCH PLANT OPERATOR                         
14/09/2004 13:44:00.1 [SBP01   ] Fix32.thisnode.name11.A_CV set to Ferro by SC4BP01::BATCH PLANT OPERATOR                           
14/09/2004 13:44:00.1 [SBP01   ] Fix32.thisnode.name12.A_CV set to Nitrato by SC4BP01::BATCH PLANT OPERATOR                         
14/09/2004 13:44:00.1 [SBP01   ] Fix32.thisnode.name14.A_CV set to Selenio by SC4BP01::BATCH PLANT OPERATOR                         
14/09/2004 13:44:00.1 [SBP01   ] Fix32.thisnode.name15.A_CV set to Cobalto by SC4BP01::BATCH PLANT OPERATOR                         
14/09/2004 13:44:00.1 [SBP01   ] Fix32.thisnode.name16.A_CV set to Ferro by SC4BP01::BATCH PLANT OPERATOR                           
14/09/2004 13:44:00.1 [SBP01   ] Fix32.thisnode.name20.A_CV set to Caco by SC4BP01::BATCH PLANT OPERATOR                            
14/09/2004 13:44:00.2 [SBP01   ] Fix32.thisnode.name50.A_CV set to  gua by SC4BP01::BATCH PLANT OPERATOR                            
14/09/2004 13:44:00.2 [SBP01   ] Fix32.thisnode.name51.A_CV set to Vapor by SC4BP01::BATCH PLANT OPERATOR                           
14/09/2004 13:44:00.2 [SBP01   ] Fix32.thisnode.name201.A_CV set to Mst 1 seco by SC4BP01::BATCH PLANT OPERATOR                     
14/09/2004 13:44:00.2 [SBP01   ] Fix32.thisnode.name202.A_CV set to Mst 2 seco by SC4BP01::BATCH PLANT OPERATOR                     
