14/09/2004 20:00:00.0 [SBP01   ] Fix32.thisnode.name12.A_CV set to Nitrato by SC4BP01::BATCH RECIPE                                 
14/09/2004 20:00:00.0 [SBP01   ] Fix32.thisnode.name14.A_CV set to Selenio by SC4BP01::BATCH RECIPE                                 
14/09/2004 20:00:00.0 [SBP01   ] Fix32.thisnode.name15.A_CV set to Cobalto by SC4BP01::BATCH RECIPE                                 
14/09/2004 20:00:00.0 [SBP01   ] Fix32.thisnode.name16.A_CV set to Ferro by SC4BP01::BATCH RECIPE                                   
14/09/2004 20:00:00.0 [SBP01   ] Fix32.thisnode.name20.A_CV set to Caco by SC4BP01::BATCH RECIPE                                    
14/09/2004 20:00:00.0 [SBP01   ] Fix32.thisnode.name50.A_CV set to  gua by SC4BP01::BATCH RECIPE                                    
14/09/2004 20:00:00.1 [SBP01   ] Fix32.thisnode.name51.A_CV set to Vapor by SC4BP01::BATCH RECIPE                                   
14/09/2004 20:00:00.1 [SBP01   ] Fix32.thisnode.name201.A_CV set to Mst 1 seco by SC4BP01::BATCH RECIPE                             
14/09/2004 20:00:00.1 [SBP01   ] Fix32.thisnode.name202.A_CV set to Mst 2 seco by SC4BP01::BATCH RECIPE                             
14/09/2004 20:00:00.1 [SBP01   ] Fix32.thisnode.name203.A_CV set to Mst 1  mido by SC4BP01::BATCH RECIPE                            
14/09/2004 20:00:00.2 [SBP01   ] Fix32.thisnode.name204.A_CV set to Mst 2  mido by SC4BP01::BATCH RECIPE                            
14/09/2004 20:03:59.4 [SBP01   ] Fix32.thisnode.name1.A_CV set to Areia 1 by SC4BP01::BATCH RECIPE                                  
14/09/2004 20:03:59.4 [SBP01   ] Fix32.thisnode.name2.A_CV set to Areia 2 by SC4BP01::BATCH RECIPE                                  
14/09/2004 20:03:59.5 [SBP01   ] Fix32.thisnode.name3.A_CV set to Dolomita by SC4BP01::BATCH RECIPE                                 
14/09/2004 20:03:59.5 [SBP01   ] Fix32.thisnode.name4.A_CV set to Calcario by SC4BP01::BATCH RECIPE                                 
14/09/2004 20:03:59.5 [SBP01   ] Fix32.thisnode.name5.A_CV set to Reserva by SC4BP01::BATCH RECIPE                                  
14/09/2004 20:03:59.5 [SBP01   ] Fix32.thisnode.name6.A_CV set to Barrilha by SC4BP01::BATCH RECIPE                                 
14/09/2004 20:03:59.6 [SBP01   ] Fix32.thisnode.name7.A_CV set to Feldspato by SC4BP01::BATCH RECIPE                                
14/09/2004 20:03:59.6 [SBP01   ] Fix32.thisnode.name8.A_CV set to Sulfato by SC4BP01::BATCH RECIPE                                  
14/09/2004 20:03:59.6 [SBP01   ] Fix32.thisnode.name9.A_CV set to Po de EP by SC4BP01::BATCH RECIPE                                 
14/09/2004 20:03:59.6 [SBP01   ] Fix32.thisnode.name10.A_CV set to Grafite by SC4BP01::BATCH RECIPE                                 
14/09/2004 20:03:59.6 [SBP01   ] Fix32.thisnode.name11.A_CV set to Ferro by SC4BP01::BATCH RECIPE                                   
14/09/2004 20:03:59.6 [SBP01   ] Fix32.thisnode.name12.A_CV set to Nitrato by SC4BP01::BATCH RECIPE                                 
14/09/2004 20:03:59.6 [SBP01   ] Fix32.thisnode.name14.A_CV set to Selenio by SC4BP01::BATCH RECIPE                                 
14/09/2004 20:03:59.6 [SBP01   ] Fix32.thisnode.name15.A_CV set to Cobalto by SC4BP01::BATCH RECIPE                                 
14/09/2004 20:03:59.7 [SBP01   ] Fix32.thisnode.name16.A_CV set to Ferro by SC4BP01::BATCH RECIPE                                   
14/09/2004 20:03:59.7 [SBP01   ] Fix32.thisnode.name20.A_CV set to Caco by SC4BP01::BATCH RECIPE                                    
14/09/2004 20:03:59.7 [SBP01   ] Fix32.thisnode.name50.A_CV set to  gua by SC4BP01::BATCH RECIPE                                    
14/09/2004 20:03:59.7 [SBP01   ] Fix32.thisnode.name51.A_CV set to Vapor by SC4BP01::BATCH RECIPE                                   
14/09/2004 20:03:59.7 [SBP01   ] Fix32.thisnode.name201.A_CV set to Mst 1 seco by SC4BP01::BATCH RECIPE                             
14/09/2004 20:03:59.7 [SBP01   ] Fix32.thisnode.name202.A_CV set to Mst 2 seco by SC4BP01::BATCH RECIPE                             
14/09/2004 20:03:59.7 [SBP01   ] Fix32.thisnode.name203.A_CV set to Mst 1  mido by SC4BP01::BATCH RECIPE                            
14/09/2004 20:03:59.7 [SBP01   ] Fix32.thisnode.name204.A_CV set to Mst 2  mido by SC4BP01::BATCH RECIPE                            
14/09/2004 20:04:56.7 [SBP01   ] Fix32.sbp01.alltime1.f_cv set to 1 by SC4BP01::BATCH RECIPE                                        
14/09/2004 20:05:01.9 [SBP01   ] WH10_hopper_ALARM_WORD ALARM is acknowledged by SC4BP01::BATCH RECIPE                              
14/09/2004 20:07:59.4 [SBP01   ] Fix32.thisnode.name1.A_CV set to Areia 1 by SC4BP01::BATCH RECIPE                                  
14/09/2004 20:07:59.4 [SBP01   ] Fix32.thisnode.name2.A_CV set to Areia 2 by SC4BP01::BATCH RECIPE                                  
14/09/2004 20:07:59.4 [SBP01   ] Fix32.thisnode.name3.A_CV set to Dolomita by SC4BP01::BATCH RECIPE                                 
14/09/2004 20:07:59.5 [SBP01   ] Fix32.thisnode.name4.A_CV set to Calcario by SC4BP01::BATCH RECIPE                                 
14/09/2004 20:07:59.5 [SBP01   ] Fix32.thisnode.name5.A_CV set to Reserva by SC4BP01::BATCH RECIPE                                  
14/09/2004 20:07:59.5 [SBP01   ] Fix32.thisnode.name6.A_CV set to Barrilha by SC4BP01::BATCH RECIPE                                 
14/09/2004 20:07:59.5 [SBP01   ] Fix32.thisnode.name7.A_CV set to Feldspato by SC4BP01::BATCH RECIPE                                
14/09/2004 20:07:59.5 [SBP01   ] Fix32.thisnode.name8.A_CV set to Sulfato by SC4BP01::BATCH RECIPE                                  
14/09/2004 20:07:59.6 [SBP01   ] Fix32.thisnode.name9.A_CV set to Po de EP by SC4BP01::BATCH RECIPE                                 
14/09/2004 20:07:59.6 [SBP01   ] Fix32.thisnode.name10.A_CV set to Grafite by SC4BP01::BATCH RECIPE                                 
14/09/2004 20:07:59.6 [SBP01   ] Fix32.thisnode.name11.A_CV set to Ferro by SC4BP01::BATCH RECIPE                                   
14/09/2004 20:07:59.6 [SBP01   ] Fix32.thisnode.name12.A_CV set to Nitrato by SC4BP01::BATCH RECIPE                                 
14/09/2004 20:07:59.6 [SBP01   ] Fix32.thisnode.name14.A_CV set to Selenio by SC4BP01::BATCH RECIPE                                 
14/09/2004 20:07:59.6 [SBP01   ] Fix32.thisnode.name15.A_CV set to Cobalto by SC4BP01::BATCH RECIPE                                 
14/09/2004 20:07:59.7 [SBP01   ] Fix32.thisnode.name16.A_CV set to Ferro by SC4BP01::BATCH RECIPE                                   
14/09/2004 20:07:59.7 [SBP01   ] Fix32.thisnode.name20.A_CV set to Caco by SC4BP01::BATCH RECIPE                                    
14/09/2004 20:07:59.8 [SBP01   ] Fix32.thisnode.name50.A_CV set to  gua by SC4BP01::BATCH RECIPE                                    
14/09/2004 20:08:00.2 [SBP01   ] Fix32.thisnode.name51.A_CV set to Vapor by SC4BP01::BATCH RECIPE                                   
14/09/2004 20:08:00.3 [SBP01   ] Fix32.thisnode.name201.A_CV set to Mst 1 seco by SC4BP01::BATCH RECIPE                             
14/09/2004 20:08:00.3 [SBP01   ] Fix32.thisnode.name202.A_CV set to Mst 2 seco by SC4BP01::BATCH RECIPE                             
14/09/2004 20:08:00.4 [SBP01   ] Fix32.thisnode.name203.A_CV set to Mst 1  mido by SC4BP01::BATCH RECIPE                            
14/09/2004 20:08:00.4 [SBP01   ] Fix32.thisnode.name204.A_CV set to Mst 2  mido by SC4BP01::BATCH RECIPE                            
14/09/2004 20:08:01.3 [SBP01   ] WH10_hopper_ALARM_10 ALARM is acknowledged by SC4BP01::BATCH RECIPE                                
14/09/2004 20:08:01.3 [SBP01   ] WH10_CLEAR_HOPPER_ALARMS                           1      Mx2_clear_hopper_alarms                 
14/09/2004 20:08:01.3 [SBP01   ] Fix32.sbp01.wh10_clear_hopper_alarms.f_cv set to 1 by SC4BP01::BATCH RECIPE                        
14/09/2004 20:08:01.6 [SBP01   ] WH10_CLEAR_HOPPER_ALARMS                           1      Mx2_clear_hopper_alarms                 
14/09/2004 20:08:01.6 [SBP01   ] Fix32.sbp01.wh10_clear_hopper_alarms.f_cv set to 1 by SC4BP01::BATCH RECIPE                        
14/09/2004 20:08:10.8 [SBP01   ] Transport_ALARM_04 ALARM is acknowledged by SC4BP01::BATCH RECIPE                                  
14/09/2004 20:08:10.8 [SBP01   ] Transport_ALARM_08 ALARM is acknowledged by SC4BP01::BATCH RECIPE                                  
14/09/2004 20:08:10.9 [SBP01   ] Transport_ALARM_09 ALARM is acknowledged by SC4BP01::BATCH RECIPE                                  
14/09/2004 20:08:11.0 [SBP01   ] Fix32.SBP01.Transport_ALARM_WORD.F_CV set to 0 by SC4BP01::BATCH RECIPE                            
14/09/2004 20:11:59.4 [SBP01   ] Fix32.thisnode.name1.A_CV set to Areia 1 by SC4BP01::BATCH RECIPE                                  
14/09/2004 20:11:59.4 [SBP01   ] Fix32.thisnode.name2.A_CV set to Areia 2 by SC4BP01::BATCH RECIPE                                  
14/09/2004 20:11:59.4 [SBP01   ] Fix32.thisnode.name3.A_CV set to Dolomita by SC4BP01::BATCH RECIPE                                 
14/09/2004 20:11:59.5 [SBP01   ] Fix32.thisnode.name4.A_CV set to Calcario by SC4BP01::BATCH RECIPE                                 
14/09/2004 20:11:59.5 [SBP01   ] Fix32.thisnode.name5.A_CV set to Reserva by SC4BP01::BATCH RECIPE                                  
14/09/2004 20:11:59.5 [SBP01   ] Fix32.thisnode.name6.A_CV set to Barrilha by SC4BP01::BATCH RECIPE                                 
14/09/2004 20:11:59.5 [SBP01   ] Fix32.thisnode.name7.A_CV set to Feldspato by SC4BP01::BATCH RECIPE                                
14/09/2004 20:11:59.5 [SBP01   ] Fix32.thisnode.name8.A_CV set to Sulfato by SC4BP01::BATCH RECIPE                                  
14/09/2004 20:11:59.6 [SBP01   ] Fix32.thisnode.name9.A_CV set to Po de EP by SC4BP01::BATCH RECIPE                                 
14/09/2004 20:11:59.6 [SBP01   ] Fix32.thisnode.name10.A_CV set to Grafite by SC4BP01::BATCH RECIPE                                 
14/09/2004 20:11:59.6 [SBP01   ] Fix32.thisnode.name11.A_CV set to Ferro by SC4BP01::BATCH RECIPE                                   
14/09/2004 20:11:59.6 [SBP01   ] Fix32.thisnode.name12.A_CV set to Nitrato by SC4BP01::BATCH RECIPE                                 
14/09/2004 20:11:59.6 [SBP01   ] Fix32.thisnode.name14.A_CV set to Selenio by SC4BP01::BATCH RECIPE                                 
14/09/2004 20:11:59.6 [SBP01   ] Fix32.thisnode.name15.A_CV set to Cobalto by SC4BP01::BATCH RECIPE                                 
14/09/2004 20:11:59.7 [SBP01   ] Fix32.thisnode.name16.A_CV set to Ferro by SC4BP01::BATCH RECIPE                                   
14/09/2004 20:11:59.7 [SBP01   ] Fix32.thisnode.name20.A_CV set to Caco by SC4BP01::BATCH RECIPE                                    
14/09/2004 20:11:59.7 [SBP01   ] Fix32.thisnode.name50.A_CV set to  gua by SC4BP01::BATCH RECIPE                                    
14/09/2004 20:11:59.7 [SBP01   ] Fix32.thisnode.name51.A_CV set to Vapor by SC4BP01::BATCH RECIPE                                   
14/09/2004 20:11:59.7 [SBP01   ] Fix32.thisnode.name201.A_CV set to Mst 1 seco by SC4BP01::BATCH RECIPE                             
14/09/2004 20:11:59.8 [SBP01   ] Fix32.thisnode.name202.A_CV set to Mst 2 seco by SC4BP01::BATCH RECIPE                             
14/09/2004 20:11:59.8 [SBP01   ] Fix32.thisnode.name203.A_CV set to Mst 1  mido by SC4BP01::BATCH RECIPE                            
14/09/2004 20:11:59.8 [SBP01   ] Fix32.thisnode.name204.A_CV set to Mst 2  mido by SC4BP01::BATCH RECIPE                            
14/09/2004 20:12:27.5 [SBP01   ] TRANSPORT_ALARM_WORD ALARM is acknowledged by SC4BP01::BATCH RECIPE                                
14/09/2004 20:12:27.5 [SBP01   ] TRANSPORT_ALARM_WORD ALARM is acknowledged by SC4BP01::BATCH RECIPE                                
14/09/2004 20:12:28.5 [SBP01   ] WH10_HOPPER_ALARM_WORD ALARM is acknowledged by SC4BP01::BATCH RECIPE                              
14/09/2004 20:12:28.5 [SBP01   ] WH10_HOPPER_ALARM_WORD ALARM is acknowledged by SC4BP01::BATCH RECIPE                              
14/09/2004 20:12:29.3 [SBP01   ] MX2_SEQUENCE_ALARM_WORD ALARM is acknowledged by SC4BP01::BATCH RECIPE                             
14/09/2004 20:12:29.3 [SBP01   ] MX2_SEQUENCE_ALARM_WORD ALARM is acknowledged by SC4BP01::BATCH RECIPE                             
14/09/2004 20:12:29.9 [SBP01   ] MX2_SEQUENCE_ALARM_06 ALARM is acknowledged by SC4BP01::BATCH RECIPE                               
14/09/2004 20:12:30.7 [SBP01   ] FURNACE_HOPPER_ALARM_WORD ALARM is acknowledged by SC4BP01::BATCH RECIPE                           
14/09/2004 20:12:30.7 [SBP01   ] FURNACE_HOPPER_ALARM_WORD ALARM is acknowledged by SC4BP01::BATCH RECIPE                           
14/09/2004 20:12:31.6 [SBP01   ] FURNACE_HOPPER_ALARM_09 ALARM is acknowledged by SC4BP01::BATCH RECIPE                             
14/09/2004 20:12:31.6 [SBP01   ] FURNACE_HOPPER_ALARM_09 ALARM is acknowledged by SC4BP01::BATCH RECIPE                             
14/09/2004 20:12:33.4 [SBP01   ] PROFI_PLCF13_SLAVE7_DIAG_1 ALARM is acknowledged by SC4BP01::BATCH RECIPE                          
14/09/2004 20:12:33.4 [SBP01   ] PROFI_PLCF13_SLAVE7_DIAG_1 ALARM is acknowledged by SC4BP01::BATCH RECIPE                          
14/09/2004 20:15:59.4 [SBP01   ] Fix32.thisnode.name1.A_CV set to Areia 1 by SC4BP01::BATCH RECIPE                                  
14/09/2004 20:15:59.4 [SBP01   ] Fix32.thisnode.name2.A_CV set to Areia 2 by SC4BP01::BATCH RECIPE                                  
14/09/2004 20:15:59.5 [SBP01   ] Fix32.thisnode.name3.A_CV set to Dolomita by SC4BP01::BATCH RECIPE                                 
14/09/2004 20:15:59.5 [SBP01   ] Fix32.thisnode.name4.A_CV set to Calcario by SC4BP01::BATCH RECIPE                                 
14/09/2004 20:15:59.5 [SBP01   ] Fix32.thisnode.name5.A_CV set to Reserva by SC4BP01::BATCH RECIPE                                  
14/09/2004 20:15:59.5 [SBP01   ] Fix32.thisnode.name6.A_CV set to Barrilha by SC4BP01::BATCH RECIPE                                 
14/09/2004 20:15:59.5 [SBP01   ] Fix32.thisnode.name7.A_CV set to Feldspato by SC4BP01::BATCH RECIPE                                
14/09/2004 20:15:59.5 [SBP01   ] Fix32.thisnode.name8.A_CV set to Sulfato by SC4BP01::BATCH RECIPE                                  
14/09/2004 20:15:59.6 [SBP01   ] Fix32.thisnode.name9.A_CV set to Po de EP by SC4BP01::BATCH RECIPE                                 
14/09/2004 20:15:59.6 [SBP01   ] Fix32.thisnode.name10.A_CV set to Grafite by SC4BP01::BATCH RECIPE                                 
14/09/2004 20:15:59.6 [SBP01   ] Fix32.thisnode.name11.A_CV set to Ferro by SC4BP01::BATCH RECIPE                                   
14/09/2004 20:15:59.6 [SBP01   ] Fix32.thisnode.name12.A_CV set to Nitrato by SC4BP01::BATCH RECIPE                                 
14/09/2004 20:15:59.6 [SBP01   ] Fix32.thisnode.name14.A_CV set to Selenio by SC4BP01::BATCH RECIPE                                 
14/09/2004 20:15:59.7 [SBP01   ] Fix32.thisnode.name15.A_CV set to Cobalto by SC4BP01::BATCH RECIPE                                 
14/09/2004 20:15:59.7 [SBP01   ] Fix32.thisnode.name16.A_CV set to Ferro by SC4BP01::BATCH RECIPE                                   
14/09/2004 20:15:59.7 [SBP01   ] Fix32.thisnode.name20.A_CV set to Caco by SC4BP01::BATCH RECIPE                                    
14/09/2004 20:15:59.7 [SBP01   ] Fix32.thisnode.name50.A_CV set to  gua by SC4BP01::BATCH RECIPE                                    
14/09/2004 20:15:59.7 [SBP01   ] Fix32.thisnode.name51.A_CV set to Vapor by SC4BP01::BATCH RECIPE                                   
14/09/2004 20:15:59.7 [SBP01   ] Fix32.thisnode.name201.A_CV set to Mst 1 seco by SC4BP01::BATCH RECIPE                             
14/09/2004 20:15:59.7 [SBP01   ] Fix32.thisnode.name202.A_CV set to Mst 2 seco by SC4BP01::BATCH RECIPE                             
14/09/2004 20:15:59.7 [SBP01   ] Fix32.thisnode.name203.A_CV set to Mst 1  mido by SC4BP01::BATCH RECIPE                            
14/09/2004 20:15:59.8 [SBP01   ] Fix32.thisnode.name204.A_CV set to Mst 2  mido by SC4BP01::BATCH RECIPE                            
14/09/2004 20:19:17.7 [SCE01   ] CE_M601_ANM_SAFETY_AREA        CFN             CLOSE      CE M601 SAFETY AREA                     
14/09/2004 20:19:18.5 [SCE01   ] CE_M601_ANM_SAFETY_AREA        CFN             CLOSE      CE M601 SAFETY AREA                     
14/09/2004 20:19:40.7 [SCE01   ] CE_M601_ANM_SAFETY_AREA        OK               OPEN      CE M601 SAFETY AREA                     
14/09/2004 20:19:41.4 [SCE01   ] CE_M601_ANM_SAFETY_AREA        OK               OPEN      CE M601 SAFETY AREA                     
14/09/2004 20:19:59.8 [SBP01   ] Fix32.thisnode.name1.A_CV set to Areia 1 by SC4BP01::BATCH RECIPE                                  
14/09/2004 20:19:59.8 [SBP01   ] Fix32.thisnode.name2.A_CV set to Areia 2 by SC4BP01::BATCH RECIPE                                  
14/09/2004 20:19:59.8 [SBP01   ] Fix32.thisnode.name3.A_CV set to Dolomita by SC4BP01::BATCH RECIPE                                 
14/09/2004 20:19:59.8 [SBP01   ] Fix32.thisnode.name4.A_CV set to Calcario by SC4BP01::BATCH RECIPE                                 
14/09/2004 20:19:59.8 [SBP01   ] Fix32.thisnode.name5.A_CV set to Reserva by SC4BP01::BATCH RECIPE                                  
14/09/2004 20:19:59.8 [SBP01   ] Fix32.thisnode.name6.A_CV set to Barrilha by SC4BP01::BATCH RECIPE                                 
14/09/2004 20:19:59.8 [SBP01   ] Fix32.thisnode.name7.A_CV set to Feldspato by SC4BP01::BATCH RECIPE                                
14/09/2004 20:19:59.9 [SBP01   ] Fix32.thisnode.name8.A_CV set to Sulfato by SC4BP01::BATCH RECIPE                                  
14/09/2004 20:19:59.9 [SBP01   ] Fix32.thisnode.name9.A_CV set to Po de EP by SC4BP01::BATCH RECIPE                                 
14/09/2004 20:19:59.9 [SBP01   ] Fix32.thisnode.name10.A_CV set to Grafite by SC4BP01::BATCH RECIPE                                 
14/09/2004 20:19:59.9 [SBP01   ] Fix32.thisnode.name11.A_CV set to Ferro by SC4BP01::BATCH RECIPE                                   
14/09/2004 20:19:59.9 [SBP01   ] Fix32.thisnode.name12.A_CV set to Nitrato by SC4BP01::BATCH RECIPE                                 
14/09/2004 20:19:59.9 [SBP01   ] Fix32.thisnode.name14.A_CV set to Selenio by SC4BP01::BATCH RECIPE                                 
14/09/2004 20:19:59.9 [SBP01   ] Fix32.thisnode.name15.A_CV set to Cobalto by SC4BP01::BATCH RECIPE                                 
14/09/2004 20:20:00.0 [SBP01   ] Fix32.thisnode.name16.A_CV set to Ferro by SC4BP01::BATCH RECIPE                                   
14/09/2004 20:20:00.0 [SBP01   ] Fix32.thisnode.name20.A_CV set to Caco by SC4BP01::BATCH RECIPE                                    
14/09/2004 20:20:00.0 [SBP01   ] Fix32.thisnode.name50.A_CV set to  gua by SC4BP01::BATCH RECIPE                                    
14/09/2004 20:20:00.0 [SBP01   ] Fix32.thisnode.name51.A_CV set to Vapor by SC4BP01::BATCH RECIPE                                   
14/09/2004 20:20:00.0 [SBP01   ] Fix32.thisnode.name201.A_CV set to Mst 1 seco by SC4BP01::BATCH RECIPE                             
14/09/2004 20:20:00.1 [SBP01   ] Fix32.thisnode.name202.A_CV set to Mst 2 seco by SC4BP01::BATCH RECIPE                             
14/09/2004 20:20:00.1 [SBP01   ] Fix32.thisnode.name203.A_CV set to Mst 1  mido by SC4BP01::BATCH RECIPE                            
14/09/2004 20:20:00.1 [SBP01   ] Fix32.thisnode.name204.A_CV set to Mst 2  mido by SC4BP01::BATCH RECIPE                            
14/09/2004 20:23:59.4 [SBP01   ] Fix32.thisnode.name1.A_CV set to Areia 1 by SC4BP01::BATCH RECIPE                                  
14/09/2004 20:23:59.4 [SBP01   ] Fix32.thisnode.name2.A_CV set to Areia 2 by SC4BP01::BATCH RECIPE                                  
14/09/2004 20:23:59.4 [SBP01   ] Fix32.thisnode.name3.A_CV set to Dolomita by SC4BP01::BATCH RECIPE                                 
14/09/2004 20:23:59.5 [SBP01   ] Fix32.thisnode.name4.A_CV set to Calcario by SC4BP01::BATCH RECIPE                                 
14/09/2004 20:23:59.5 [SBP01   ] Fix32.thisnode.name5.A_CV set to Reserva by SC4BP01::BATCH RECIPE                                  
14/09/2004 20:23:59.5 [SBP01   ] Fix32.thisnode.name6.A_CV set to Barrilha by SC4BP01::BATCH RECIPE                                 
14/09/2004 20:23:59.5 [SBP01   ] Fix32.thisnode.name7.A_CV set to Feldspato by SC4BP01::BATCH RECIPE                                
14/09/2004 20:23:59.5 [SBP01   ] Fix32.thisnode.name8.A_CV set to Sulfato by SC4BP01::BATCH RECIPE                                  
14/09/2004 20:23:59.5 [SBP01   ] Fix32.thisnode.name9.A_CV set to Po de EP by SC4BP01::BATCH RECIPE                                 
14/09/2004 20:23:59.6 [SBP01   ] Fix32.thisnode.name10.A_CV set to Grafite by SC4BP01::BATCH RECIPE                                 
14/09/2004 20:23:59.6 [SBP01   ] Fix32.thisnode.name11.A_CV set to Ferro by SC4BP01::BATCH RECIPE                                   
14/09/2004 20:23:59.6 [SBP01   ] Fix32.thisnode.name12.A_CV set to Nitrato by SC4BP01::BATCH RECIPE                                 
14/09/2004 20:23:59.6 [SBP01   ] Fix32.thisnode.name14.A_CV set to Selenio by SC4BP01::BATCH RECIPE                                 
14/09/2004 20:23:59.6 [SBP01   ] Fix32.thisnode.name15.A_CV set to Cobalto by SC4BP01::BATCH RECIPE                                 
14/09/2004 20:23:59.6 [SBP01   ] Fix32.thisnode.name16.A_CV set to Ferro by SC4BP01::BATCH RECIPE                                   
14/09/2004 20:23:59.7 [SBP01   ] Fix32.thisnode.name20.A_CV set to Caco by SC4BP01::BATCH RECIPE                                    
14/09/2004 20:23:59.7 [SBP01   ] Fix32.thisnode.name50.A_CV set to  gua by SC4BP01::BATCH RECIPE                                    
14/09/2004 20:23:59.7 [SBP01   ] Fix32.thisnode.name51.A_CV set to Vapor by SC4BP01::BATCH RECIPE                                   
14/09/2004 20:23:59.7 [SBP01   ] Fix32.thisnode.name201.A_CV set to Mst 1 seco by SC4BP01::BATCH RECIPE                             
14/09/2004 20:23:59.7 [SBP01   ] Fix32.thisnode.name202.A_CV set to Mst 2 seco by SC4BP01::BATCH RECIPE                             
14/09/2004 20:23:59.7 [SBP01   ] Fix32.thisnode.name203.A_CV set to Mst 1  mido by SC4BP01::BATCH RECIPE                            
14/09/2004 20:23:59.7 [SBP01   ] Fix32.thisnode.name204.A_CV set to Mst 2  mido by SC4BP01::BATCH RECIPE                            
14/09/2004 20:25:32.4 [SCE01   ] CE_M604_ANM_SAFETY_AREA        CFN             CLOSE      CE M604 SAFETY AREA                     
14/09/2004 20:25:32.7 [SCE01   ] CE_M604_ANM_SAFETY_AREA        CFN             CLOSE      CE M604 SAFETY AREA                     
14/09/2004 20:26:38.4 [SCE01   ] CE_M604_ANM_SAFETY_AREA        OK               OPEN      CE M604 SAFETY AREA                     
14/09/2004 20:26:38.7 [SCE01   ] CE_M604_ANM_SAFETY_AREA        OK               OPEN      CE M604 SAFETY AREA                     
14/09/2004 20:27:59.4 [SBP01   ] Fix32.thisnode.name1.A_CV set to Areia 1 by SC4BP01::BATCH RECIPE                                  
14/09/2004 20:27:59.4 [SBP01   ] Fix32.thisnode.name2.A_CV set to Areia 2 by SC4BP01::BATCH RECIPE                                  
14/09/2004 20:27:59.4 [SBP01   ] Fix32.thisnode.name3.A_CV set to Dolomita by SC4BP01::BATCH RECIPE                                 
14/09/2004 20:27:59.4 [SBP01   ] Fix32.thisnode.name4.A_CV set to Calcario by SC4BP01::BATCH RECIPE                                 
14/09/2004 20:27:59.4 [SBP01   ] Fix32.thisnode.name5.A_CV set to Reserva by SC4BP01::BATCH RECIPE                                  
14/09/2004 20:27:59.5 [SBP01   ] Fix32.thisnode.name6.A_CV set to Barrilha by SC4BP01::BATCH RECIPE                                 
14/09/2004 20:27:59.5 [SBP01   ] Fix32.thisnode.name7.A_CV set to Feldspato by SC4BP01::BATCH RECIPE                                
14/09/2004 20:27:59.5 [SBP01   ] Fix32.thisnode.name8.A_CV set to Sulfato by SC4BP01::BATCH RECIPE                                  
14/09/2004 20:27:59.5 [SBP01   ] Fix32.thisnode.name9.A_CV set to Po de EP by SC4BP01::BATCH RECIPE                                 
14/09/2004 20:27:59.5 [SBP01   ] Fix32.thisnode.name10.A_CV set to Grafite by SC4BP01::BATCH RECIPE                                 
14/09/2004 20:27:59.5 [SBP01   ] Fix32.thisnode.name11.A_CV set to Ferro by SC4BP01::BATCH RECIPE                                   
14/09/2004 20:27:59.5 [SBP01   ] Fix32.thisnode.name12.A_CV set to Nitrato by SC4BP01::BATCH RECIPE                                 
14/09/2004 20:27:59.6 [SBP01   ] Fix32.thisnode.name14.A_CV set to Selenio by SC4BP01::BATCH RECIPE                                 
14/09/2004 20:27:59.6 [SBP01   ] Fix32.thisnode.name15.A_CV set to Cobalto by SC4BP01::BATCH RECIPE                                 
14/09/2004 20:27:59.6 [SBP01   ] Fix32.thisnode.name16.A_CV set to Ferro by SC4BP01::BATCH RECIPE                                   
14/09/2004 20:27:59.6 [SBP01   ] Fix32.thisnode.name20.A_CV set to Caco by SC4BP01::BATCH RECIPE                                    
14/09/2004 20:27:59.7 [SBP01   ] Fix32.thisnode.name50.A_CV set to  gua by SC4BP01::BATCH RECIPE                                    
14/09/2004 20:27:59.7 [SBP01   ] Fix32.thisnode.name51.A_CV set to Vapor by SC4BP01::BATCH RECIPE                                   
14/09/2004 20:27:59.7 [SBP01   ] Fix32.thisnode.name201.A_CV set to Mst 1 seco by SC4BP01::BATCH RECIPE                             
14/09/2004 20:27:59.7 [SBP01   ] Fix32.thisnode.name202.A_CV set to Mst 2 seco by SC4BP01::BATCH RECIPE                             
14/09/2004 20:27:59.7 [SBP01   ] Fix32.thisnode.name203.A_CV set to Mst 1  mido by SC4BP01::BATCH RECIPE                            
14/09/2004 20:27:59.8 [SBP01   ] Fix32.thisnode.name204.A_CV set to Mst 2  mido by SC4BP01::BATCH RECIPE                            
14/09/2004 20:31:59.4 [SBP01   ] Fix32.thisnode.name1.A_CV set to Areia 1 by SC4BP01::BATCH RECIPE                                  
14/09/2004 20:31:59.4 [SBP01   ] Fix32.thisnode.name2.A_CV set to Areia 2 by SC4BP01::BATCH RECIPE                                  
14/09/2004 20:31:59.4 [SBP01   ] Fix32.thisnode.name3.A_CV set to Dolomita by SC4BP01::BATCH RECIPE                                 
14/09/2004 20:31:59.5 [SBP01   ] Fix32.thisnode.name4.A_CV set to Calcario by SC4BP01::BATCH RECIPE                                 
14/09/2004 20:31:59.5 [SBP01   ] Fix32.thisnode.name5.A_CV set to Reserva by SC4BP01::BATCH RECIPE                                  
14/09/2004 20:31:59.5 [SBP01   ] Fix32.thisnode.name6.A_CV set to Barrilha by SC4BP01::BATCH RECIPE                                 
14/09/2004 20:31:59.5 [SBP01   ] Fix32.thisnode.name7.A_CV set to Feldspato by SC4BP01::BATCH RECIPE                                
14/09/2004 20:31:59.5 [SBP01   ] Fix32.thisnode.name8.A_CV set to Sulfato by SC4BP01::BATCH RECIPE                                  
14/09/2004 20:31:59.5 [SBP01   ] Fix32.thisnode.name9.A_CV set to Po de EP by SC4BP01::BATCH RECIPE                                 
14/09/2004 20:31:59.6 [SBP01   ] Fix32.thisnode.name10.A_CV set to Grafite by SC4BP01::BATCH RECIPE                                 
14/09/2004 20:31:59.6 [SBP01   ] Fix32.thisnode.name11.A_CV set to Ferro by SC4BP01::BATCH RECIPE                                   
14/09/2004 20:31:59.6 [SBP01   ] Fix32.thisnode.name12.A_CV set to Nitrato by SC4BP01::BATCH RECIPE                                 
14/09/2004 20:31:59.6 [SBP01   ] Fix32.thisnode.name14.A_CV set to Selenio by SC4BP01::BATCH RECIPE                                 
14/09/2004 20:31:59.6 [SBP01   ] Fix32.thisnode.name15.A_CV set to Cobalto by SC4BP01::BATCH RECIPE                                 
14/09/2004 20:31:59.7 [SBP01   ] Fix32.thisnode.name16.A_CV set to Ferro by SC4BP01::BATCH RECIPE                                   
14/09/2004 20:31:59.7 [SBP01   ] Fix32.thisnode.name20.A_CV set to Caco by SC4BP01::BATCH RECIPE                                    
14/09/2004 20:31:59.7 [SBP01   ] Fix32.thisnode.name50.A_CV set to  gua by SC4BP01::BATCH RECIPE                                    
14/09/2004 20:31:59.7 [SBP01   ] Fix32.thisnode.name51.A_CV set to Vapor by SC4BP01::BATCH RECIPE                                   
14/09/2004 20:31:59.7 [SBP01   ] Fix32.thisnode.name201.A_CV set to Mst 1 seco by SC4BP01::BATCH RECIPE                             
14/09/2004 20:31:59.7 [SBP01   ] Fix32.thisnode.name202.A_CV set to Mst 2 seco by SC4BP01::BATCH RECIPE                             
14/09/2004 20:31:59.7 [SBP01   ] Fix32.thisnode.name203.A_CV set to Mst 1  mido by SC4BP01::BATCH RECIPE                            
14/09/2004 20:31:59.8 [SBP01   ] Fix32.thisnode.name204.A_CV set to Mst 2  mido by SC4BP01::BATCH RECIPE                            
14/09/2004 20:32:44.6 [SHE10   ] RS_BA1006 ALARM is acknowledged by SC4HE10::HOT END OPERATOR                                       
14/09/2004 20:32:46.4 [SHE03   ] ETE_LOW_LEVEL4 ALARM is acknowledged by SC4HE10::HOT END OPERATOR                                  
14/09/2004 20:32:44.6 [SHE10   ] RS_BA1006 ALARM is acknowledged by SC4HE10::HOT END OPERATOR                                       
14/09/2004 20:32:46.5 [SHE03   ] ETE_LOW_LEVEL4 ALARM is acknowledged by SC4HE10::HOT END OPERATOR                                  
14/09/2004 20:35:59.4 [SBP01   ] Fix32.thisnode.name1.A_CV set to Areia 1 by SC4BP01::BATCH RECIPE                                  
14/09/2004 20:35:59.4 [SBP01   ] Fix32.thisnode.name2.A_CV set to Areia 2 by SC4BP01::BATCH RECIPE                                  
14/09/2004 20:35:59.4 [SBP01   ] Fix32.thisnode.name3.A_CV set to Dolomita by SC4BP01::BATCH RECIPE                                 
14/09/2004 20:35:59.5 [SBP01   ] Fix32.thisnode.name4.A_CV set to Calcario by SC4BP01::BATCH RECIPE                                 
14/09/2004 20:35:59.5 [SBP01   ] Fix32.thisnode.name5.A_CV set to Reserva by SC4BP01::BATCH RECIPE                                  
14/09/2004 20:35:59.5 [SBP01   ] Fix32.thisnode.name6.A_CV set to Barrilha by SC4BP01::BATCH RECIPE                                 
14/09/2004 20:35:59.5 [SBP01   ] Fix32.thisnode.name7.A_CV set to Feldspato by SC4BP01::BATCH RECIPE                                
14/09/2004 20:35:59.5 [SBP01   ] Fix32.thisnode.name8.A_CV set to Sulfato by SC4BP01::BATCH RECIPE                                  
14/09/2004 20:35:59.6 [SBP01   ] Fix32.thisnode.name9.A_CV set to Po de EP by SC4BP01::BATCH RECIPE                                 
14/09/2004 20:35:59.6 [SBP01   ] Fix32.thisnode.name10.A_CV set to Grafite by SC4BP01::BATCH RECIPE                                 
14/09/2004 20:35:59.6 [SBP01   ] Fix32.thisnode.name11.A_CV set to Ferro by SC4BP01::BATCH RECIPE                                   
14/09/2004 20:35:59.6 [SBP01   ] Fix32.thisnode.name12.A_CV set to Nitrato by SC4BP01::BATCH RECIPE                                 
14/09/2004 20:35:59.6 [SBP01   ] Fix32.thisnode.name14.A_CV set to Selenio by SC4BP01::BATCH RECIPE                                 
14/09/2004 20:35:59.7 [SBP01   ] Fix32.thisnode.name15.A_CV set to Cobalto by SC4BP01::BATCH RECIPE                                 
14/09/2004 20:35:59.7 [SBP01   ] Fix32.thisnode.name16.A_CV set to Ferro by SC4BP01::BATCH RECIPE                                   
14/09/2004 20:35:59.7 [SBP01   ] Fix32.thisnode.name20.A_CV set to Caco by SC4BP01::BATCH RECIPE                                    
14/09/2004 20:35:59.7 [SBP01   ] Fix32.thisnode.name50.A_CV set to  gua by SC4BP01::BATCH RECIPE                                    
14/09/2004 20:35:59.7 [SBP01   ] Fix32.thisnode.name51.A_CV set to Vapor by SC4BP01::BATCH RECIPE                                   
14/09/2004 20:35:59.7 [SBP01   ] Fix32.thisnode.name201.A_CV set to Mst 1 seco by SC4BP01::BATCH RECIPE                             
14/09/2004 20:35:59.7 [SBP01   ] Fix32.thisnode.name202.A_CV set to Mst 2 seco by SC4BP01::BATCH RECIPE                             
14/09/2004 20:35:59.8 [SBP01   ] Fix32.thisnode.name203.A_CV set to Mst 1  mido by SC4BP01::BATCH RECIPE                            
14/09/2004 20:35:59.8 [SBP01   ] Fix32.thisnode.name204.A_CV set to Mst 2  mido by SC4BP01::BATCH RECIPE                            
14/09/2004 20:39:28.5 [SBP01   ] FURNACE_HOPPER_ALARM_WORD ALARM is acknowledged by SC4BP01::BATCH RECIPE                           
14/09/2004 20:39:28.6 [SBP01   ] FURNACE_HOPPER_ALARM_WORD ALARM is acknowledged by SC4BP01::BATCH RECIPE                           
14/09/2004 20:39:29.4 [SBP01   ] FURNACE_HOPPER_ALARM_07 ALARM is acknowledged by SC4BP01::BATCH RECIPE                             
14/09/2004 20:39:29.4 [SBP01   ] FURNACE_HOPPER_ALARM_07 ALARM is acknowledged by SC4BP01::BATCH RECIPE                             
14/09/2004 20:39:30.5 [SBP01   ] FURNACE_HOPPER_ALARM_09 ALARM is acknowledged by SC4BP01::BATCH RECIPE                             
14/09/2004 20:39:30.5 [SBP01   ] FURNACE_HOPPER_ALARM_09 ALARM is acknowledged by SC4BP01::BATCH RECIPE                             
14/09/2004 20:39:31.2 [SBP01   ] PROFI_PLCF13_SLAVE7_DIAG_1 ALARM is acknowledged by SC4BP01::BATCH RECIPE                          
14/09/2004 20:40:00.7 [SBP01   ] Fix32.thisnode.name1.A_CV set to Areia 1 by SC4BP01::BATCH RECIPE                                  
14/09/2004 20:40:00.8 [SBP01   ] Fix32.thisnode.name2.A_CV set to Areia 2 by SC4BP01::BATCH RECIPE                                  
14/09/2004 20:40:00.8 [SBP01   ] Fix32.thisnode.name3.A_CV set to Dolomita by SC4BP01::BATCH RECIPE                                 
14/09/2004 20:40:00.8 [SBP01   ] Fix32.thisnode.name4.A_CV set to Calcario by SC4BP01::BATCH RECIPE                                 
14/09/2004 20:40:00.8 [SBP01   ] Fix32.thisnode.name5.A_CV set to Reserva by SC4BP01::BATCH RECIPE                                  
14/09/2004 20:40:00.8 [SBP01   ] Fix32.thisnode.name6.A_CV set to Barrilha by SC4BP01::BATCH RECIPE                                 
14/09/2004 20:40:00.9 [SBP01   ] Fix32.thisnode.name7.A_CV set to Feldspato by SC4BP01::BATCH RECIPE                                
14/09/2004 20:40:00.9 [SBP01   ] Fix32.thisnode.name8.A_CV set to Sulfato by SC4BP01::BATCH RECIPE                                  
14/09/2004 20:40:00.9 [SBP01   ] Fix32.thisnode.name9.A_CV set to Po de EP by SC4BP01::BATCH RECIPE                                 
14/09/2004 20:40:00.9 [SBP01   ] Fix32.thisnode.name10.A_CV set to Grafite by SC4BP01::BATCH RECIPE                                 
14/09/2004 20:40:01.0 [SBP01   ] Fix32.thisnode.name11.A_CV set to Ferro by SC4BP01::BATCH RECIPE                                   
14/09/2004 20:40:01.0 [SBP01   ] Fix32.thisnode.name12.A_CV set to Nitrato by SC4BP01::BATCH RECIPE                                 
14/09/2004 20:40:01.0 [SBP01   ] Fix32.thisnode.name14.A_CV set to Selenio by SC4BP01::BATCH RECIPE                                 
14/09/2004 20:40:01.0 [SBP01   ] Fix32.thisnode.name15.A_CV set to Cobalto by SC4BP01::BATCH RECIPE                                 
14/09/2004 20:40:01.1 [SBP01   ] Fix32.thisnode.name16.A_CV set to Ferro by SC4BP01::BATCH RECIPE                                   
14/09/2004 20:40:01.1 [SBP01   ] Fix32.thisnode.name20.A_CV set to Caco by SC4BP01::BATCH RECIPE                                    
14/09/2004 20:40:01.1 [SBP01   ] Fix32.thisnode.name50.A_CV set to  gua by SC4BP01::BATCH RECIPE                                    
14/09/2004 20:40:01.1 [SBP01   ] Fix32.thisnode.name51.A_CV set to Vapor by SC4BP01::BATCH RECIPE                                   
14/09/2004 20:40:01.1 [SBP01   ] Fix32.thisnode.name201.A_CV set to Mst 1 seco by SC4BP01::BATCH RECIPE                             
14/09/2004 20:40:01.1 [SBP01   ] Fix32.thisnode.name202.A_CV set to Mst 2 seco by SC4BP01::BATCH RECIPE                             
14/09/2004 20:40:01.2 [SBP01   ] Fix32.thisnode.name203.A_CV set to Mst 1  mido by SC4BP01::BATCH RECIPE                            
14/09/2004 20:40:01.2 [SBP01   ] Fix32.thisnode.name204.A_CV set to Mst 2  mido by SC4BP01::BATCH RECIPE                            
14/09/2004 20:43:59.4 [SBP01   ] Fix32.thisnode.name1.A_CV set to Areia 1 by SC4BP01::BATCH RECIPE                                  
14/09/2004 20:43:59.4 [SBP01   ] Fix32.thisnode.name2.A_CV set to Areia 2 by SC4BP01::BATCH RECIPE                                  
14/09/2004 20:43:59.4 [SBP01   ] Fix32.thisnode.name3.A_CV set to Dolomita by SC4BP01::BATCH RECIPE                                 
14/09/2004 20:43:59.4 [SBP01   ] Fix32.thisnode.name4.A_CV set to Calcario by SC4BP01::BATCH RECIPE                                 
14/09/2004 20:43:59.5 [SBP01   ] Fix32.thisnode.name5.A_CV set to Reserva by SC4BP01::BATCH RECIPE                                  
14/09/2004 20:43:59.5 [SBP01   ] Fix32.thisnode.name6.A_CV set to Barrilha by SC4BP01::BATCH RECIPE                                 
14/09/2004 20:43:59.5 [SBP01   ] Fix32.thisnode.name7.A_CV set to Feldspato by SC4BP01::BATCH RECIPE                                
14/09/2004 20:43:59.5 [SBP01   ] Fix32.thisnode.name8.A_CV set to Sulfato by SC4BP01::BATCH RECIPE                                  
14/09/2004 20:43:59.5 [SBP01   ] Fix32.thisnode.name9.A_CV set to Po de EP by SC4BP01::BATCH RECIPE                                 
14/09/2004 20:43:59.5 [SBP01   ] Fix32.thisnode.name10.A_CV set to Grafite by SC4BP01::BATCH RECIPE                                 
14/09/2004 20:43:59.5 [SBP01   ] Fix32.thisnode.name11.A_CV set to Ferro by SC4BP01::BATCH RECIPE                                   
14/09/2004 20:43:59.6 [SBP01   ] Fix32.thisnode.name12.A_CV set to Nitrato by SC4BP01::BATCH RECIPE                                 
14/09/2004 20:43:59.6 [SBP01   ] Fix32.thisnode.name14.A_CV set to Selenio by SC4BP01::BATCH RECIPE                                 
14/09/2004 20:43:59.6 [SBP01   ] Fix32.thisnode.name15.A_CV set to Cobalto by SC4BP01::BATCH RECIPE                                 
14/09/2004 20:43:59.6 [SBP01   ] Fix32.thisnode.name16.A_CV set to Ferro by SC4BP01::BATCH RECIPE                                   
14/09/2004 20:43:59.7 [SBP01   ] Fix32.thisnode.name20.A_CV set to Caco by SC4BP01::BATCH RECIPE                                    
14/09/2004 20:43:59.7 [SBP01   ] Fix32.thisnode.name50.A_CV set to  gua by SC4BP01::BATCH RECIPE                                    
14/09/2004 20:43:59.7 [SBP01   ] Fix32.thisnode.name51.A_CV set to Vapor by SC4BP01::BATCH RECIPE                                   
14/09/2004 20:43:59.7 [SBP01   ] Fix32.thisnode.name201.A_CV set to Mst 1 seco by SC4BP01::BATCH RECIPE                             
14/09/2004 20:43:59.7 [SBP01   ] Fix32.thisnode.name202.A_CV set to Mst 2 seco by SC4BP01::BATCH RECIPE                             
14/09/2004 20:43:59.7 [SBP01   ] Fix32.thisnode.name203.A_CV set to Mst 1  mido by SC4BP01::BATCH RECIPE                            
14/09/2004 20:43:59.7 [SBP01   ] Fix32.thisnode.name204.A_CV set to Mst 2  mido by SC4BP01::BATCH RECIPE                            
14/09/2004 20:47:59.4 [SBP01   ] Fix32.thisnode.name1.A_CV set to Areia 1 by SC4BP01::BATCH RECIPE                                  
14/09/2004 20:47:59.4 [SBP01   ] Fix32.thisnode.name2.A_CV set to Areia 2 by SC4BP01::BATCH RECIPE                                  
14/09/2004 20:47:59.4 [SBP01   ] Fix32.thisnode.name3.A_CV set to Dolomita by SC4BP01::BATCH RECIPE                                 
14/09/2004 20:47:59.4 [SBP01   ] Fix32.thisnode.name4.A_CV set to Calcario by SC4BP01::BATCH RECIPE                                 
14/09/2004 20:47:59.4 [SBP01   ] Fix32.thisnode.name5.A_CV set to Reserva by SC4BP01::BATCH RECIPE                                  
14/09/2004 20:47:59.4 [SBP01   ] Fix32.thisnode.name6.A_CV set to Barrilha by SC4BP01::BATCH RECIPE                                 
14/09/2004 20:47:59.5 [SBP01   ] Fix32.thisnode.name7.A_CV set to Feldspato by SC4BP01::BATCH RECIPE                                
14/09/2004 20:47:59.5 [SBP01   ] Fix32.thisnode.name8.A_CV set to Sulfato by SC4BP01::BATCH RECIPE                                  
14/09/2004 20:47:59.5 [SBP01   ] Fix32.thisnode.name9.A_CV set to Po de EP by SC4BP01::BATCH RECIPE                                 
14/09/2004 20:47:59.5 [SBP01   ] Fix32.thisnode.name10.A_CV set to Grafite by SC4BP01::BATCH RECIPE                                 
14/09/2004 20:47:59.5 [SBP01   ] Fix32.thisnode.name11.A_CV set to Ferro by SC4BP01::BATCH RECIPE                                   
14/09/2004 20:47:59.6 [SBP01   ] Fix32.thisnode.name12.A_CV set to Nitrato by SC4BP01::BATCH RECIPE                                 
14/09/2004 20:47:59.6 [SBP01   ] Fix32.thisnode.name14.A_CV set to Selenio by SC4BP01::BATCH RECIPE                                 
14/09/2004 20:47:59.6 [SBP01   ] Fix32.thisnode.name15.A_CV set to Cobalto by SC4BP01::BATCH RECIPE                                 
14/09/2004 20:47:59.6 [SBP01   ] Fix32.thisnode.name16.A_CV set to Ferro by SC4BP01::BATCH RECIPE                                   
14/09/2004 20:47:59.6 [SBP01   ] Fix32.thisnode.name20.A_CV set to Caco by SC4BP01::BATCH RECIPE                                    
14/09/2004 20:47:59.7 [SBP01   ] Fix32.thisnode.name50.A_CV set to  gua by SC4BP01::BATCH RECIPE                                    
14/09/2004 20:47:59.7 [SBP01   ] Fix32.thisnode.name51.A_CV set to Vapor by SC4BP01::BATCH RECIPE                                   
14/09/2004 20:47:59.7 [SBP01   ] Fix32.thisnode.name201.A_CV set to Mst 1 seco by SC4BP01::BATCH RECIPE                             
14/09/2004 20:47:59.7 [SBP01   ] Fix32.thisnode.name202.A_CV set to Mst 2 seco by SC4BP01::BATCH RECIPE                             
14/09/2004 20:47:59.7 [SBP01   ] Fix32.thisnode.name203.A_CV set to Mst 1  mido by SC4BP01::BATCH RECIPE                            
14/09/2004 20:47:59.7 [SBP01   ] Fix32.thisnode.name204.A_CV set to Mst 2  mido by SC4BP01::BATCH RECIPE                            
14/09/2004 20:49:45.6 [SBP01   ] S1_INTAKE_START_FROM_RH1                           1      S1_intake_start_from_rh1                
14/09/2004 20:49:45.6 [SBP01   ] Fix32.SBP01.s1_intake_start_from_rh1.f_CV set to 1 by SC4BP01::BATCH RECIPE                        
14/09/2004 20:51:59.4 [SBP01   ] Fix32.thisnode.name1.A_CV set to Areia 1 by SC4BP01::BATCH RECIPE                                  
14/09/2004 20:51:59.4 [SBP01   ] Fix32.thisnode.name2.A_CV set to Areia 2 by SC4BP01::BATCH RECIPE                                  
14/09/2004 20:51:59.4 [SBP01   ] Fix32.thisnode.name3.A_CV set to Dolomita by SC4BP01::BATCH RECIPE                                 
14/09/2004 20:51:59.4 [SBP01   ] Fix32.thisnode.name4.A_CV set to Calcario by SC4BP01::BATCH RECIPE                                 
14/09/2004 20:51:59.4 [SBP01   ] Fix32.thisnode.name5.A_CV set to Reserva by SC4BP01::BATCH RECIPE                                  
14/09/2004 20:51:59.5 [SBP01   ] Fix32.thisnode.name6.A_CV set to Barrilha by SC4BP01::BATCH RECIPE                                 
14/09/2004 20:51:59.5 [SBP01   ] Fix32.thisnode.name7.A_CV set to Feldspato by SC4BP01::BATCH RECIPE                                
14/09/2004 20:51:59.5 [SBP01   ] Fix32.thisnode.name8.A_CV set to Sulfato by SC4BP01::BATCH RECIPE                                  
14/09/2004 20:51:59.5 [SBP01   ] Fix32.thisnode.name9.A_CV set to Po de EP by SC4BP01::BATCH RECIPE                                 
14/09/2004 20:51:59.5 [SBP01   ] Fix32.thisnode.name10.A_CV set to Grafite by SC4BP01::BATCH RECIPE                                 
14/09/2004 20:51:59.6 [SBP01   ] Fix32.thisnode.name11.A_CV set to Ferro by SC4BP01::BATCH RECIPE                                   
14/09/2004 20:51:59.6 [SBP01   ] Fix32.thisnode.name12.A_CV set to Nitrato by SC4BP01::BATCH RECIPE                                 
14/09/2004 20:51:59.6 [SBP01   ] Fix32.thisnode.name14.A_CV set to Selenio by SC4BP01::BATCH RECIPE                                 
14/09/2004 20:51:59.6 [SBP01   ] Fix32.thisnode.name15.A_CV set to Cobalto by SC4BP01::BATCH RECIPE                                 
14/09/2004 20:51:59.6 [SBP01   ] Fix32.thisnode.name16.A_CV set to Ferro by SC4BP01::BATCH RECIPE                                   
14/09/2004 20:51:59.6 [SBP01   ] Fix32.thisnode.name20.A_CV set to Caco by SC4BP01::BATCH RECIPE                                    
14/09/2004 20:51:59.7 [SBP01   ] Fix32.thisnode.name50.A_CV set to  gua by SC4BP01::BATCH RECIPE                                    
14/09/2004 20:51:59.7 [SBP01   ] Fix32.thisnode.name51.A_CV set to Vapor by SC4BP01::BATCH RECIPE                                   
14/09/2004 20:51:59.7 [SBP01   ] Fix32.thisnode.name201.A_CV set to Mst 1 seco by SC4BP01::BATCH RECIPE                             
14/09/2004 20:51:59.7 [SBP01   ] Fix32.thisnode.name202.A_CV set to Mst 2 seco by SC4BP01::BATCH RECIPE                             
14/09/2004 20:51:59.7 [SBP01   ] Fix32.thisnode.name203.A_CV set to Mst 1  mido by SC4BP01::BATCH RECIPE                            
14/09/2004 20:51:59.7 [SBP01   ] Fix32.thisnode.name204.A_CV set to Mst 2  mido by SC4BP01::BATCH RECIPE                            
14/09/2004 20:55:59.4 [SBP01   ] Fix32.thisnode.name1.A_CV set to Areia 1 by SC4BP01::BATCH RECIPE                                  
14/09/2004 20:55:59.4 [SBP01   ] Fix32.thisnode.name2.A_CV set to Areia 2 by SC4BP01::BATCH RECIPE                                  
14/09/2004 20:55:59.4 [SBP01   ] Fix32.thisnode.name3.A_CV set to Dolomita by SC4BP01::BATCH RECIPE                                 
14/09/2004 20:55:59.4 [SBP01   ] Fix32.thisnode.name4.A_CV set to Calcario by SC4BP01::BATCH RECIPE                                 
14/09/2004 20:55:59.4 [SBP01   ] Fix32.thisnode.name5.A_CV set to Reserva by SC4BP01::BATCH RECIPE                                  
14/09/2004 20:55:59.4 [SBP01   ] Fix32.thisnode.name6.A_CV set to Barrilha by SC4BP01::BATCH RECIPE                                 
14/09/2004 20:55:59.5 [SBP01   ] Fix32.thisnode.name7.A_CV set to Feldspato by SC4BP01::BATCH RECIPE                                
14/09/2004 20:55:59.5 [SBP01   ] Fix32.thisnode.name8.A_CV set to Sulfato by SC4BP01::BATCH RECIPE                                  
14/09/2004 20:55:59.5 [SBP01   ] Fix32.thisnode.name9.A_CV set to Po de EP by SC4BP01::BATCH RECIPE                                 
14/09/2004 20:55:59.5 [SBP01   ] Fix32.thisnode.name10.A_CV set to Grafite by SC4BP01::BATCH RECIPE                                 
14/09/2004 20:55:59.5 [SBP01   ] Fix32.thisnode.name11.A_CV set to Ferro by SC4BP01::BATCH RECIPE                                   
14/09/2004 20:55:59.5 [SBP01   ] Fix32.thisnode.name12.A_CV set to Nitrato by SC4BP01::BATCH RECIPE                                 
14/09/2004 20:55:59.5 [SBP01   ] Fix32.thisnode.name14.A_CV set to Selenio by SC4BP01::BATCH RECIPE                                 
14/09/2004 20:55:59.5 [SBP01   ] Fix32.thisnode.name15.A_CV set to Cobalto by SC4BP01::BATCH RECIPE                                 
14/09/2004 20:55:59.6 [SBP01   ] Fix32.thisnode.name16.A_CV set to Ferro by SC4BP01::BATCH RECIPE                                   
14/09/2004 20:55:59.6 [SBP01   ] Fix32.thisnode.name20.A_CV set to Caco by SC4BP01::BATCH RECIPE                                    
14/09/2004 20:55:59.6 [SBP01   ] Fix32.thisnode.name50.A_CV set to  gua by SC4BP01::BATCH RECIPE                                    
14/09/2004 20:55:59.6 [SBP01   ] Fix32.thisnode.name51.A_CV set to Vapor by SC4BP01::BATCH RECIPE                                   
14/09/2004 20:55:59.6 [SBP01   ] Fix32.thisnode.name201.A_CV set to Mst 1 seco by SC4BP01::BATCH RECIPE                             
14/09/2004 20:55:59.6 [SBP01   ] Fix32.thisnode.name202.A_CV set to Mst 2 seco by SC4BP01::BATCH RECIPE                             
14/09/2004 20:55:59.6 [SBP01   ] Fix32.thisnode.name203.A_CV set to Mst 1  mido by SC4BP01::BATCH RECIPE                            
14/09/2004 20:55:59.7 [SBP01   ] Fix32.thisnode.name204.A_CV set to Mst 2  mido by SC4BP01::BATCH RECIPE                            
14/09/2004 20:56:25.7 [SCE01   ] CE_M601_ANM_STORE2_EMPTY       CFN             CLOSE      CE M601 STORE 2 EMPTY                   
14/09/2004 20:56:26.4 [SCE01   ] CE_M601_ANM_STORE2_EMPTY       CFN             CLOSE      CE M601 STORE 2 EMPTY                   
14/09/2004 20:56:52.7 [SCE01   ] CE_M601_A_SQ20_SQ21_PUSH_PACK2 CFN             CLOSE      CE M601 SQ20 SQ21 PUSH PACK 2           
14/09/2004 20:56:53.5 [SCE01   ] CE_M601_A_SQ20_SQ21_PUSH_PACK2 CFN             CLOSE      CE M601 SQ20 SQ21 PUSH PACK 2           
14/09/2004 20:57:14.7 [SCE01   ] CE_M601_ANM_SAFETY_AREA        CFN             CLOSE      CE M601 SAFETY AREA                     
14/09/2004 20:57:16.4 [SCE01   ] CE_M601_ANM_SAFETY_AREA        CFN             CLOSE      CE M601 SAFETY AREA                     
14/09/2004 20:57:18.4 [SCE01   ] CE_M601_ANM_STORE2_EMPTY       OK               OPEN      CE M601 STORE 2 EMPTY                   
14/09/2004 20:57:17.7 [SCE01   ] CE_M601_ANM_STORE2_EMPTY       OK               OPEN      CE M601 STORE 2 EMPTY                   
14/09/2004 20:57:29.3 [SBP01   ] Fix32.sbp01.alltime1.f_cv set to 1 by WC4BP01::BATCH PLANT OPERATOR                                
14/09/2004 20:59:52.7 [SCE01   ] CE_M601_ANM_SAFETY_AREA        OK               OPEN      CE M601 SAFETY AREA                     
14/09/2004 20:59:53.3 [SCE01   ] CE_M601_ANM_SAFETY_AREA        OK               OPEN      CE M601 SAFETY AREA                     
14/09/2004 20:59:59.7 [SBP01   ] Fix32.thisnode.name1.A_CV set to Areia 1 by SC4BP01::BATCH RECIPE                                  
14/09/2004 20:59:59.7 [SBP01   ] Fix32.thisnode.name2.A_CV set to Areia 2 by SC4BP01::BATCH RECIPE                                  
14/09/2004 20:59:59.7 [SBP01   ] Fix32.thisnode.name3.A_CV set to Dolomita by SC4BP01::BATCH RECIPE                                 
14/09/2004 20:59:59.7 [SBP01   ] Fix32.thisnode.name4.A_CV set to Calcario by SC4BP01::BATCH RECIPE                                 
14/09/2004 20:59:59.7 [SBP01   ] Fix32.thisnode.name5.A_CV set to Reserva by SC4BP01::BATCH RECIPE                                  
14/09/2004 20:59:59.7 [SBP01   ] Fix32.thisnode.name6.A_CV set to Barrilha by SC4BP01::BATCH RECIPE                                 
14/09/2004 20:59:59.7 [SBP01   ] Fix32.thisnode.name7.A_CV set to Feldspato by SC4BP01::BATCH RECIPE                                
14/09/2004 20:59:59.8 [SBP01   ] Fix32.thisnode.name8.A_CV set to Sulfato by SC4BP01::BATCH RECIPE                                  
14/09/2004 20:59:59.8 [SBP01   ] Fix32.thisnode.name9.A_CV set to Po de EP by SC4BP01::BATCH RECIPE                                 
14/09/2004 20:59:59.8 [SBP01   ] Fix32.thisnode.name10.A_CV set to Grafite by SC4BP01::BATCH RECIPE                                 
14/09/2004 21:00:07.3 [SCE01   ] CE_M601_A_SQ20_SQ21_PUSH_PACK2 OK               OPEN      CE M601 SQ20 SQ21 PUSH PACK 2           
14/09/2004 20:59:59.8 [SBP01   ] Fix32.thisnode.name11.A_CV set to Ferro by SC4BP01::BATCH RECIPE                                   
14/09/2004 20:59:59.8 [SBP01   ] Fix32.thisnode.name12.A_CV set to Nitrato by SC4BP01::BATCH RECIPE                                 
14/09/2004 20:59:59.8 [SBP01   ] Fix32.thisnode.name14.A_CV set to Selenio by SC4BP01::BATCH RECIPE                                 
14/09/2004 20:59:59.8 [SBP01   ] Fix32.thisnode.name15.A_CV set to Cobalto by SC4BP01::BATCH RECIPE                                 
14/09/2004 20:59:59.9 [SBP01   ] Fix32.thisnode.name16.A_CV set to Ferro by SC4BP01::BATCH RECIPE                                   
14/09/2004 20:59:59.9 [SBP01   ] Fix32.thisnode.name20.A_CV set to Caco by SC4BP01::BATCH RECIPE                                    
14/09/2004 20:59:59.9 [SBP01   ] Fix32.thisnode.name50.A_CV set to  gua by SC4BP01::BATCH RECIPE                                    
14/09/2004 20:59:59.9 [SBP01   ] Fix32.thisnode.name51.A_CV set to Vapor by SC4BP01::BATCH RECIPE                                   
14/09/2004 20:59:59.9 [SBP01   ] Fix32.thisnode.name201.A_CV set to Mst 1 seco by SC4BP01::BATCH RECIPE                             
14/09/2004 20:59:59.9 [SBP01   ] Fix32.thisnode.name202.A_CV set to Mst 2 seco by SC4BP01::BATCH RECIPE                             
14/09/2004 21:00:07.7 [SCE01   ] CE_M601_A_SQ20_SQ21_PUSH_PACK2 OK               OPEN      CE M601 SQ20 SQ21 PUSH PACK 2           
14/09/2004 21:00:00.0 [SBP01   ] Fix32.thisnode.name203.A_CV set to Mst 1  mido by SC4BP01::BATCH RECIPE                            
14/09/2004 21:00:00.0 [SBP01   ] Fix32.thisnode.name204.A_CV set to Mst 2  mido by SC4BP01::BATCH RECIPE                            
14/09/2004 21:03:59.4 [SBP01   ] Fix32.thisnode.name1.A_CV set to Areia 1 by SC4BP01::BATCH RECIPE                                  
14/09/2004 21:03:59.4 [SBP01   ] Fix32.thisnode.name2.A_CV set to Areia 2 by SC4BP01::BATCH RECIPE                                  
14/09/2004 21:03:59.4 [SBP01   ] Fix32.thisnode.name3.A_CV set to Dolomita by SC4BP01::BATCH RECIPE                                 
14/09/2004 21:03:59.4 [SBP01   ] Fix32.thisnode.name4.A_CV set to Calcario by SC4BP01::BATCH RECIPE                                 
14/09/2004 21:03:59.4 [SBP01   ] Fix32.thisnode.name5.A_CV set to Reserva by SC4BP01::BATCH RECIPE                                  
14/09/2004 21:03:59.4 [SBP01   ] Fix32.thisnode.name6.A_CV set to Barrilha by SC4BP01::BATCH RECIPE                                 
14/09/2004 21:03:59.4 [SBP01   ] Fix32.thisnode.name7.A_CV set to Feldspato by SC4BP01::BATCH RECIPE                                
14/09/2004 21:03:59.5 [SBP01   ] Fix32.thisnode.name8.A_CV set to Sulfato by SC4BP01::BATCH RECIPE                                  
14/09/2004 21:03:59.5 [SBP01   ] Fix32.thisnode.name9.A_CV set to Po de EP by SC4BP01::BATCH RECIPE                                 
14/09/2004 21:03:59.5 [SBP01   ] Fix32.thisnode.name10.A_CV set to Grafite by SC4BP01::BATCH RECIPE                                 
14/09/2004 21:03:59.5 [SBP01   ] Fix32.thisnode.name11.A_CV set to Ferro by SC4BP01::BATCH RECIPE                                   
14/09/2004 21:03:59.5 [SBP01   ] Fix32.thisnode.name12.A_CV set to Nitrato by SC4BP01::BATCH RECIPE                                 
14/09/2004 21:03:59.5 [SBP01   ] Fix32.thisnode.name14.A_CV set to Selenio by SC4BP01::BATCH RECIPE                                 
14/09/2004 21:03:59.6 [SBP01   ] Fix32.thisnode.name15.A_CV set to Cobalto by SC4BP01::BATCH RECIPE                                 
14/09/2004 21:03:59.6 [SBP01   ] Fix32.thisnode.name16.A_CV set to Ferro by SC4BP01::BATCH RECIPE                                   
14/09/2004 21:03:59.6 [SBP01   ] Fix32.thisnode.name20.A_CV set to Caco by SC4BP01::BATCH RECIPE                                    
14/09/2004 21:03:59.6 [SBP01   ] Fix32.thisnode.name50.A_CV set to  gua by SC4BP01::BATCH RECIPE                                    
14/09/2004 21:03:59.6 [SBP01   ] Fix32.thisnode.name51.A_CV set to Vapor by SC4BP01::BATCH RECIPE                                   
14/09/2004 21:03:59.6 [SBP01   ] Fix32.thisnode.name201.A_CV set to Mst 1 seco by SC4BP01::BATCH RECIPE                             
14/09/2004 21:03:59.6 [SBP01   ] Fix32.thisnode.name202.A_CV set to Mst 2 seco by SC4BP01::BATCH RECIPE                             
14/09/2004 21:03:59.6 [SBP01   ] Fix32.thisnode.name203.A_CV set to Mst 1  mido by SC4BP01::BATCH RECIPE                            
14/09/2004 21:03:59.6 [SBP01   ] Fix32.thisnode.name204.A_CV set to Mst 2  mido by SC4BP01::BATCH RECIPE                            
14/09/2004 21:07:19.5 [SBP01   ] FURNACE_HOPPER_ALARM_WORD ALARM is acknowledged by WC4BP01::BATCH PLANT OPERATOR                   
14/09/2004 21:07:19.6 [SBP01   ] FURNACE_HOPPER_ALARM_WORD ALARM is acknowledged by WC4BP01::BATCH PLANT OPERATOR                   
14/09/2004 21:07:59.3 [SBP01   ] Fix32.thisnode.name1.A_CV set to Areia 1 by SC4BP01::BATCH RECIPE                                  
14/09/2004 21:07:59.3 [SBP01   ] Fix32.thisnode.name2.A_CV set to Areia 2 by SC4BP01::BATCH RECIPE                                  
14/09/2004 21:07:59.4 [SBP01   ] Fix32.thisnode.name3.A_CV set to Dolomita by SC4BP01::BATCH RECIPE                                 
14/09/2004 21:07:59.4 [SBP01   ] Fix32.thisnode.name4.A_CV set to Calcario by SC4BP01::BATCH RECIPE                                 
14/09/2004 21:07:59.4 [SBP01   ] Fix32.thisnode.name5.A_CV set to Reserva by SC4BP01::BATCH RECIPE                                  
14/09/2004 21:07:59.4 [SBP01   ] Fix32.thisnode.name6.A_CV set to Barrilha by SC4BP01::BATCH RECIPE                                 
14/09/2004 21:07:59.4 [SBP01   ] Fix32.thisnode.name7.A_CV set to Feldspato by SC4BP01::BATCH RECIPE                                
14/09/2004 21:07:59.4 [SBP01   ] Fix32.thisnode.name8.A_CV set to Sulfato by SC4BP01::BATCH RECIPE                                  
14/09/2004 21:07:59.4 [SBP01   ] Fix32.thisnode.name9.A_CV set to Po de EP by SC4BP01::BATCH RECIPE                                 
14/09/2004 21:07:59.5 [SBP01   ] Fix32.thisnode.name10.A_CV set to Grafite by SC4BP01::BATCH RECIPE                                 
14/09/2004 21:07:59.5 [SBP01   ] Fix32.thisnode.name11.A_CV set to Ferro by SC4BP01::BATCH RECIPE                                   
14/09/2004 21:07:59.5 [SBP01   ] Fix32.thisnode.name12.A_CV set to Nitrato by SC4BP01::BATCH RECIPE                                 
14/09/2004 21:07:59.5 [SBP01   ] Fix32.thisnode.name14.A_CV set to Selenio by SC4BP01::BATCH RECIPE                                 
14/09/2004 21:07:59.5 [SBP01   ] Fix32.thisnode.name15.A_CV set to Cobalto by SC4BP01::BATCH RECIPE                                 
14/09/2004 21:07:59.5 [SBP01   ] Fix32.thisnode.name16.A_CV set to Ferro by SC4BP01::BATCH RECIPE                                   
14/09/2004 21:07:59.5 [SBP01   ] Fix32.thisnode.name20.A_CV set to Caco by SC4BP01::BATCH RECIPE                                    
14/09/2004 21:07:59.5 [SBP01   ] Fix32.thisnode.name50.A_CV set to  gua by SC4BP01::BATCH RECIPE                                    
14/09/2004 21:07:59.6 [SBP01   ] Fix32.thisnode.name51.A_CV set to Vapor by SC4BP01::BATCH RECIPE                                   
14/09/2004 21:07:59.6 [SBP01   ] Fix32.thisnode.name201.A_CV set to Mst 1 seco by SC4BP01::BATCH RECIPE                             
14/09/2004 21:07:59.6 [SBP01   ] Fix32.thisnode.name202.A_CV set to Mst 2 seco by SC4BP01::BATCH RECIPE                             
14/09/2004 21:07:59.6 [SBP01   ] Fix32.thisnode.name203.A_CV set to Mst 1  mido by SC4BP01::BATCH RECIPE                            
14/09/2004 21:07:59.6 [SBP01   ] Fix32.thisnode.name204.A_CV set to Mst 2  mido by SC4BP01::BATCH RECIPE                            
14/09/2004 21:11:59.3 [SBP01   ] Fix32.thisnode.name1.A_CV set to Areia 1 by SC4BP01::BATCH RECIPE                                  
14/09/2004 21:11:59.4 [SBP01   ] Fix32.thisnode.name2.A_CV set to Areia 2 by SC4BP01::BATCH RECIPE                                  
14/09/2004 21:11:59.4 [SBP01   ] Fix32.thisnode.name3.A_CV set to Dolomita by SC4BP01::BATCH RECIPE                                 
14/09/2004 21:11:59.4 [SBP01   ] Fix32.thisnode.name4.A_CV set to Calcario by SC4BP01::BATCH RECIPE                                 
14/09/2004 21:11:59.4 [SBP01   ] Fix32.thisnode.name5.A_CV set to Reserva by SC4BP01::BATCH RECIPE                                  
14/09/2004 21:11:59.4 [SBP01   ] Fix32.thisnode.name6.A_CV set to Barrilha by SC4BP01::BATCH RECIPE                                 
14/09/2004 21:11:59.5 [SBP01   ] Fix32.thisnode.name7.A_CV set to Feldspato by SC4BP01::BATCH RECIPE                                
14/09/2004 21:11:59.5 [SBP01   ] Fix32.thisnode.name8.A_CV set to Sulfato by SC4BP01::BATCH RECIPE                                  
14/09/2004 21:11:59.5 [SBP01   ] Fix32.thisnode.name9.A_CV set to Po de EP by SC4BP01::BATCH RECIPE                                 
14/09/2004 21:11:59.5 [SBP01   ] Fix32.thisnode.name10.A_CV set to Grafite by SC4BP01::BATCH RECIPE                                 
14/09/2004 21:11:59.5 [SBP01   ] Fix32.thisnode.name11.A_CV set to Ferro by SC4BP01::BATCH RECIPE                                   
14/09/2004 21:11:59.6 [SBP01   ] Fix32.thisnode.name12.A_CV set to Nitrato by SC4BP01::BATCH RECIPE                                 
14/09/2004 21:11:59.6 [SBP01   ] Fix32.thisnode.name14.A_CV set to Selenio by SC4BP01::BATCH RECIPE                                 
14/09/2004 21:11:59.6 [SBP01   ] Fix32.thisnode.name15.A_CV set to Cobalto by SC4BP01::BATCH RECIPE                                 
14/09/2004 21:11:59.6 [SBP01   ] Fix32.thisnode.name16.A_CV set to Ferro by SC4BP01::BATCH RECIPE                                   
14/09/2004 21:11:59.6 [SBP01   ] Fix32.thisnode.name20.A_CV set to Caco by SC4BP01::BATCH RECIPE                                    
14/09/2004 21:11:59.6 [SBP01   ] Fix32.thisnode.name50.A_CV set to  gua by SC4BP01::BATCH RECIPE                                    
14/09/2004 21:11:59.6 [SBP01   ] Fix32.thisnode.name51.A_CV set to Vapor by SC4BP01::BATCH RECIPE                                   
14/09/2004 21:11:59.7 [SBP01   ] Fix32.thisnode.name201.A_CV set to Mst 1 seco by SC4BP01::BATCH RECIPE                             
14/09/2004 21:11:59.7 [SBP01   ] Fix32.thisnode.name202.A_CV set to Mst 2 seco by SC4BP01::BATCH RECIPE                             
14/09/2004 21:11:59.7 [SBP01   ] Fix32.thisnode.name203.A_CV set to Mst 1  mido by SC4BP01::BATCH RECIPE                            
14/09/2004 21:11:59.7 [SBP01   ] Fix32.thisnode.name204.A_CV set to Mst 2  mido by SC4BP01::BATCH RECIPE                            
14/09/2004 21:15:59.3 [SBP01   ] Fix32.thisnode.name1.A_CV set to Areia 1 by SC4BP01::BATCH RECIPE                                  
14/09/2004 21:15:59.3 [SBP01   ] Fix32.thisnode.name2.A_CV set to Areia 2 by SC4BP01::BATCH RECIPE                                  
14/09/2004 21:15:59.4 [SBP01   ] Fix32.thisnode.name3.A_CV set to Dolomita by SC4BP01::BATCH RECIPE                                 
14/09/2004 21:15:59.4 [SBP01   ] Fix32.thisnode.name4.A_CV set to Calcario by SC4BP01::BATCH RECIPE                                 
14/09/2004 21:15:59.4 [SBP01   ] Fix32.thisnode.name5.A_CV set to Reserva by SC4BP01::BATCH RECIPE                                  
14/09/2004 21:15:59.4 [SBP01   ] Fix32.thisnode.name6.A_CV set to Barrilha by SC4BP01::BATCH RECIPE                                 
14/09/2004 21:15:59.4 [SBP01   ] Fix32.thisnode.name7.A_CV set to Feldspato by SC4BP01::BATCH RECIPE                                
14/09/2004 21:15:59.4 [SBP01   ] Fix32.thisnode.name8.A_CV set to Sulfato by SC4BP01::BATCH RECIPE                                  
14/09/2004 21:15:59.4 [SBP01   ] Fix32.thisnode.name9.A_CV set to Po de EP by SC4BP01::BATCH RECIPE                                 
14/09/2004 21:15:59.4 [SBP01   ] Fix32.thisnode.name10.A_CV set to Grafite by SC4BP01::BATCH RECIPE                                 
14/09/2004 21:15:59.5 [SBP01   ] Fix32.thisnode.name11.A_CV set to Ferro by SC4BP01::BATCH RECIPE                                   
14/09/2004 21:15:59.5 [SBP01   ] Fix32.thisnode.name12.A_CV set to Nitrato by SC4BP01::BATCH RECIPE                                 
14/09/2004 21:15:59.5 [SBP01   ] Fix32.thisnode.name14.A_CV set to Selenio by SC4BP01::BATCH RECIPE                                 
14/09/2004 21:15:59.5 [SBP01   ] Fix32.thisnode.name15.A_CV set to Cobalto by SC4BP01::BATCH RECIPE                                 
14/09/2004 21:15:59.5 [SBP01   ] Fix32.thisnode.name16.A_CV set to Ferro by SC4BP01::BATCH RECIPE                                   
14/09/2004 21:15:59.5 [SBP01   ] Fix32.thisnode.name20.A_CV set to Caco by SC4BP01::BATCH RECIPE                                    
14/09/2004 21:15:59.6 [SBP01   ] Fix32.thisnode.name50.A_CV set to  gua by SC4BP01::BATCH RECIPE                                    
14/09/2004 21:15:59.6 [SBP01   ] Fix32.thisnode.name51.A_CV set to Vapor by SC4BP01::BATCH RECIPE                                   
14/09/2004 21:15:59.6 [SBP01   ] Fix32.thisnode.name201.A_CV set to Mst 1 seco by SC4BP01::BATCH RECIPE                             
14/09/2004 21:15:59.6 [SBP01   ] Fix32.thisnode.name202.A_CV set to Mst 2 seco by SC4BP01::BATCH RECIPE                             
14/09/2004 21:15:59.6 [SBP01   ] Fix32.thisnode.name203.A_CV set to Mst 1  mido by SC4BP01::BATCH RECIPE                            
14/09/2004 21:15:59.6 [SBP01   ] Fix32.thisnode.name204.A_CV set to Mst 2  mido by SC4BP01::BATCH RECIPE                            
14/09/2004 21:19:59.7 [SBP01   ] Fix32.thisnode.name1.A_CV set to Areia 1 by SC4BP01::BATCH RECIPE                                  
14/09/2004 21:19:59.7 [SBP01   ] Fix32.thisnode.name2.A_CV set to Areia 2 by SC4BP01::BATCH RECIPE                                  
14/09/2004 21:19:59.7 [SBP01   ] Fix32.thisnode.name3.A_CV set to Dolomita by SC4BP01::BATCH RECIPE                                 
14/09/2004 21:19:59.7 [SBP01   ] Fix32.thisnode.name4.A_CV set to Calcario by SC4BP01::BATCH RECIPE                                 
14/09/2004 21:19:59.7 [SBP01   ] Fix32.thisnode.name5.A_CV set to Reserva by SC4BP01::BATCH RECIPE                                  
14/09/2004 21:19:59.7 [SBP01   ] Fix32.thisnode.name6.A_CV set to Barrilha by SC4BP01::BATCH RECIPE                                 
14/09/2004 21:19:59.7 [SBP01   ] Fix32.thisnode.name7.A_CV set to Feldspato by SC4BP01::BATCH RECIPE                                
14/09/2004 21:19:59.7 [SBP01   ] Fix32.thisnode.name8.A_CV set to Sulfato by SC4BP01::BATCH RECIPE                                  
14/09/2004 21:19:59.8 [SBP01   ] Fix32.thisnode.name9.A_CV set to Po de EP by SC4BP01::BATCH RECIPE                                 
14/09/2004 21:19:59.8 [SBP01   ] Fix32.thisnode.name10.A_CV set to Grafite by SC4BP01::BATCH RECIPE                                 
14/09/2004 21:19:59.8 [SBP01   ] Fix32.thisnode.name11.A_CV set to Ferro by SC4BP01::BATCH RECIPE                                   
14/09/2004 21:19:59.8 [SBP01   ] Fix32.thisnode.name12.A_CV set to Nitrato by SC4BP01::BATCH RECIPE                                 
14/09/2004 21:19:59.8 [SBP01   ] Fix32.thisnode.name14.A_CV set to Selenio by SC4BP01::BATCH RECIPE                                 
14/09/2004 21:19:59.8 [SBP01   ] Fix32.thisnode.name15.A_CV set to Cobalto by SC4BP01::BATCH RECIPE                                 
14/09/2004 21:19:59.8 [SBP01   ] Fix32.thisnode.name16.A_CV set to Ferro by SC4BP01::BATCH RECIPE                                   
14/09/2004 21:19:59.9 [SBP01   ] Fix32.thisnode.name20.A_CV set to Caco by SC4BP01::BATCH RECIPE                                    
14/09/2004 21:19:59.9 [SBP01   ] Fix32.thisnode.name50.A_CV set to  gua by SC4BP01::BATCH RECIPE                                    
14/09/2004 21:19:59.9 [SBP01   ] Fix32.thisnode.name51.A_CV set to Vapor by SC4BP01::BATCH RECIPE                                   
14/09/2004 21:19:59.9 [SBP01   ] Fix32.thisnode.name201.A_CV set to Mst 1 seco by SC4BP01::BATCH RECIPE                             
14/09/2004 21:19:59.9 [SBP01   ] Fix32.thisnode.name202.A_CV set to Mst 2 seco by SC4BP01::BATCH RECIPE                             
14/09/2004 21:19:59.9 [SBP01   ] Fix32.thisnode.name203.A_CV set to Mst 1  mido by SC4BP01::BATCH RECIPE                            
14/09/2004 21:20:00.0 [SBP01   ] Fix32.thisnode.name204.A_CV set to Mst 2  mido by SC4BP01::BATCH RECIPE                            
14/09/2004 21:21:31.7 [SCE01   ] CE_M604_ANM_SAFETY_AREA        CFN             CLOSE      CE M604 SAFETY AREA                     
14/09/2004 21:21:32.4 [SCE01   ] CE_M604_ANM_SAFETY_AREA        CFN             CLOSE      CE M604 SAFETY AREA                     
14/09/2004 21:22:09.7 [SCE01   ] CE_M604_ANM_SAFETY_AREA        OK               OPEN      CE M604 SAFETY AREA                     
14/09/2004 21:22:10.4 [SCE01   ] CE_M604_ANM_SAFETY_AREA        OK               OPEN      CE M604 SAFETY AREA                     
14/09/2004 21:23:59.3 [SBP01   ] Fix32.thisnode.name1.A_CV set to Areia 1 by SC4BP01::BATCH RECIPE                                  
14/09/2004 21:23:59.3 [SBP01   ] Fix32.thisnode.name2.A_CV set to Areia 2 by SC4BP01::BATCH RECIPE                                  
14/09/2004 21:23:59.3 [SBP01   ] Fix32.thisnode.name3.A_CV set to Dolomita by SC4BP01::BATCH RECIPE                                 
14/09/2004 21:23:59.4 [SBP01   ] Fix32.thisnode.name4.A_CV set to Calcario by SC4BP01::BATCH RECIPE                                 
14/09/2004 21:23:59.4 [SBP01   ] Fix32.thisnode.name5.A_CV set to Reserva by SC4BP01::BATCH RECIPE                                  
14/09/2004 21:23:59.4 [SBP01   ] Fix32.thisnode.name6.A_CV set to Barrilha by SC4BP01::BATCH RECIPE                                 
14/09/2004 21:23:59.4 [SBP01   ] Fix32.thisnode.name7.A_CV set to Feldspato by SC4BP01::BATCH RECIPE                                
14/09/2004 21:23:59.4 [SBP01   ] Fix32.thisnode.name8.A_CV set to Sulfato by SC4BP01::BATCH RECIPE                                  
14/09/2004 21:23:59.4 [SBP01   ] Fix32.thisnode.name9.A_CV set to Po de EP by SC4BP01::BATCH RECIPE                                 
14/09/2004 21:23:59.4 [SBP01   ] Fix32.thisnode.name10.A_CV set to Grafite by SC4BP01::BATCH RECIPE                                 
14/09/2004 21:23:59.5 [SBP01   ] Fix32.thisnode.name11.A_CV set to Ferro by SC4BP01::BATCH RECIPE                                   
14/09/2004 21:23:59.5 [SBP01   ] Fix32.thisnode.name12.A_CV set to Nitrato by SC4BP01::BATCH RECIPE                                 
14/09/2004 21:23:59.5 [SBP01   ] Fix32.thisnode.name14.A_CV set to Selenio by SC4BP01::BATCH RECIPE                                 
14/09/2004 21:23:59.5 [SBP01   ] Fix32.thisnode.name15.A_CV set to Cobalto by SC4BP01::BATCH RECIPE                                 
14/09/2004 21:23:59.5 [SBP01   ] Fix32.thisnode.name16.A_CV set to Ferro by SC4BP01::BATCH RECIPE                                   
14/09/2004 21:23:59.5 [SBP01   ] Fix32.thisnode.name20.A_CV set to Caco by SC4BP01::BATCH RECIPE                                    
14/09/2004 21:23:59.5 [SBP01   ] Fix32.thisnode.name50.A_CV set to  gua by SC4BP01::BATCH RECIPE                                    
14/09/2004 21:23:59.6 [SBP01   ] Fix32.thisnode.name51.A_CV set to Vapor by SC4BP01::BATCH RECIPE                                   
14/09/2004 21:23:59.6 [SBP01   ] Fix32.thisnode.name201.A_CV set to Mst 1 seco by SC4BP01::BATCH RECIPE                             
14/09/2004 21:23:59.6 [SBP01   ] Fix32.thisnode.name202.A_CV set to Mst 2 seco by SC4BP01::BATCH RECIPE                             
14/09/2004 21:23:59.6 [SBP01   ] Fix32.thisnode.name203.A_CV set to Mst 1  mido by SC4BP01::BATCH RECIPE                            
14/09/2004 21:23:59.6 [SBP01   ] Fix32.thisnode.name204.A_CV set to Mst 2  mido by SC4BP01::BATCH RECIPE                            
14/09/2004 21:24:45.2 [SCE01   ] Fix32.SCE01.PAT15_FECR_L.F_CV set to 1 by WC4CE02::COLD END OPERATOR                               
14/09/2004 21:24:45.7 [SCE01   ] Fix32.SCE01.PAT15_FECR_R.F_CV set to 1 by WC4CE02::COLD END OPERATOR                               
14/09/2004 21:24:48.4 [SCE01   ] Fix32.SCE01.PAT15_RASP.F_CV set to 1 by WC4CE02::COLD END OPERATOR                                 
14/09/2004 21:27:59.3 [SBP01   ] Fix32.thisnode.name1.A_CV set to Areia 1 by SC4BP01::BATCH RECIPE                                  
14/09/2004 21:27:59.3 [SBP01   ] Fix32.thisnode.name2.A_CV set to Areia 2 by SC4BP01::BATCH RECIPE                                  
14/09/2004 21:27:59.3 [SBP01   ] Fix32.thisnode.name3.A_CV set to Dolomita by SC4BP01::BATCH RECIPE                                 
14/09/2004 21:27:59.4 [SBP01   ] Fix32.thisnode.name4.A_CV set to Calcario by SC4BP01::BATCH RECIPE                                 
14/09/2004 21:27:59.4 [SBP01   ] Fix32.thisnode.name5.A_CV set to Reserva by SC4BP01::BATCH RECIPE                                  
14/09/2004 21:27:59.4 [SBP01   ] Fix32.thisnode.name6.A_CV set to Barrilha by SC4BP01::BATCH RECIPE                                 
14/09/2004 21:27:59.4 [SBP01   ] Fix32.thisnode.name7.A_CV set to Feldspato by SC4BP01::BATCH RECIPE                                
14/09/2004 21:27:59.4 [SBP01   ] Fix32.thisnode.name8.A_CV set to Sulfato by SC4BP01::BATCH RECIPE                                  
14/09/2004 21:27:59.5 [SBP01   ] Fix32.thisnode.name9.A_CV set to Po de EP by SC4BP01::BATCH RECIPE                                 
14/09/2004 21:27:59.5 [SBP01   ] Fix32.thisnode.name10.A_CV set to Grafite by SC4BP01::BATCH RECIPE                                 
14/09/2004 21:27:59.5 [SBP01   ] Fix32.thisnode.name11.A_CV set to Ferro by SC4BP01::BATCH RECIPE                                   
14/09/2004 21:27:59.5 [SBP01   ] Fix32.thisnode.name12.A_CV set to Nitrato by SC4BP01::BATCH RECIPE                                 
14/09/2004 21:27:59.5 [SBP01   ] Fix32.thisnode.name14.A_CV set to Selenio by SC4BP01::BATCH RECIPE                                 
14/09/2004 21:27:59.5 [SBP01   ] Fix32.thisnode.name15.A_CV set to Cobalto by SC4BP01::BATCH RECIPE                                 
14/09/2004 21:27:59.6 [SBP01   ] Fix32.thisnode.name16.A_CV set to Ferro by SC4BP01::BATCH RECIPE                                   
14/09/2004 21:27:59.6 [SBP01   ] Fix32.thisnode.name20.A_CV set to Caco by SC4BP01::BATCH RECIPE                                    
14/09/2004 21:27:59.6 [SBP01   ] Fix32.thisnode.name50.A_CV set to  gua by SC4BP01::BATCH RECIPE                                    
14/09/2004 21:27:59.6 [SBP01   ] Fix32.thisnode.name51.A_CV set to Vapor by SC4BP01::BATCH RECIPE                                   
14/09/2004 21:27:59.6 [SBP01   ] Fix32.thisnode.name201.A_CV set to Mst 1 seco by SC4BP01::BATCH RECIPE                             
14/09/2004 21:27:59.6 [SBP01   ] Fix32.thisnode.name202.A_CV set to Mst 2 seco by SC4BP01::BATCH RECIPE                             
14/09/2004 21:27:59.6 [SBP01   ] Fix32.thisnode.name203.A_CV set to Mst 1  mido by SC4BP01::BATCH RECIPE                            
14/09/2004 21:27:59.7 [SBP01   ] Fix32.thisnode.name204.A_CV set to Mst 2  mido by SC4BP01::BATCH RECIPE                            
14/09/2004 21:31:16.8 [SBP01   ] FURNACE_HOPPER_ALARM_WORD ALARM is acknowledged by SC4BP01::BATCH RECIPE                           
14/09/2004 21:31:16.8 [SBP01   ] FURNACE_HOPPER_ALARM_WORD ALARM is acknowledged by SC4BP01::BATCH RECIPE                           
14/09/2004 21:31:18.6 [SBP01   ] FURNACE_HOPPER_ALARM_07 ALARM is acknowledged by SC4BP01::BATCH RECIPE                             
14/09/2004 21:31:18.6 [SBP01   ] FURNACE_HOPPER_ALARM_07 ALARM is acknowledged by SC4BP01::BATCH RECIPE                             
14/09/2004 21:31:19.8 [SBP01   ] FURNACE_HOPPER_ALARM_09 ALARM is acknowledged by SC4BP01::BATCH RECIPE                             
14/09/2004 21:31:19.8 [SBP01   ] FURNACE_HOPPER_ALARM_09 ALARM is acknowledged by SC4BP01::BATCH RECIPE                             
14/09/2004 21:31:36.7 [SCE01   ] CE_M347_ANM_SAFETY_AREA        CFN             CLOSE      CE M347 SAFETY AREA                     
14/09/2004 21:31:36.7 [SBP01   ] Fix32.sbp01.alltime1.f_cv set to 1 by SC4BP01::BATCH RECIPE                                        
14/09/2004 21:31:38.3 [SCE01   ] CE_M347_ANM_SAFETY_AREA        CFN             CLOSE      CE M347 SAFETY AREA                     
14/09/2004 21:31:41.9 [SBP01   ] Fix32.sbp01.alltime1.f_cv set to 1 by SC4BP01::BATCH RECIPE                                        
14/09/2004 21:31:59.4 [SBP01   ] Fix32.thisnode.name1.A_CV set to Areia 1 by SC4BP01::BATCH RECIPE                                  
14/09/2004 21:31:59.4 [SBP01   ] Fix32.thisnode.name2.A_CV set to Areia 2 by SC4BP01::BATCH RECIPE                                  
14/09/2004 21:31:59.4 [SBP01   ] Fix32.thisnode.name3.A_CV set to Dolomita by SC4BP01::BATCH RECIPE                                 
14/09/2004 21:31:59.4 [SBP01   ] Fix32.thisnode.name4.A_CV set to Calcario by SC4BP01::BATCH RECIPE                                 
14/09/2004 21:31:59.4 [SBP01   ] Fix32.thisnode.name5.A_CV set to Reserva by SC4BP01::BATCH RECIPE                                  
14/09/2004 21:31:59.5 [SBP01   ] Fix32.thisnode.name6.A_CV set to Barrilha by SC4BP01::BATCH RECIPE                                 
14/09/2004 21:31:59.5 [SBP01   ] Fix32.thisnode.name7.A_CV set to Feldspato by SC4BP01::BATCH RECIPE                                
14/09/2004 21:31:59.5 [SBP01   ] Fix32.thisnode.name8.A_CV set to Sulfato by SC4BP01::BATCH RECIPE                                  
14/09/2004 21:31:59.5 [SBP01   ] Fix32.thisnode.name9.A_CV set to Po de EP by SC4BP01::BATCH RECIPE                                 
14/09/2004 21:31:59.5 [SBP01   ] Fix32.thisnode.name10.A_CV set to Grafite by SC4BP01::BATCH RECIPE                                 
14/09/2004 21:31:59.6 [SBP01   ] Fix32.thisnode.name11.A_CV set to Ferro by SC4BP01::BATCH RECIPE                                   
14/09/2004 21:31:59.6 [SBP01   ] Fix32.thisnode.name12.A_CV set to Nitrato by SC4BP01::BATCH RECIPE                                 
14/09/2004 21:31:59.6 [SBP01   ] Fix32.thisnode.name14.A_CV set to Selenio by SC4BP01::BATCH RECIPE                                 
14/09/2004 21:31:59.6 [SBP01   ] Fix32.thisnode.name15.A_CV set to Cobalto by SC4BP01::BATCH RECIPE                                 
14/09/2004 21:31:59.6 [SBP01   ] Fix32.thisnode.name16.A_CV set to Ferro by SC4BP01::BATCH RECIPE                                   
14/09/2004 21:31:59.6 [SBP01   ] Fix32.thisnode.name20.A_CV set to Caco by SC4BP01::BATCH RECIPE                                    
14/09/2004 21:31:59.6 [SBP01   ] Fix32.thisnode.name50.A_CV set to  gua by SC4BP01::BATCH RECIPE                                    
14/09/2004 21:31:59.7 [SBP01   ] Fix32.thisnode.name51.A_CV set to Vapor by SC4BP01::BATCH RECIPE                                   
14/09/2004 21:31:59.7 [SBP01   ] Fix32.thisnode.name201.A_CV set to Mst 1 seco by SC4BP01::BATCH RECIPE                             
14/09/2004 21:31:59.7 [SBP01   ] Fix32.thisnode.name202.A_CV set to Mst 2 seco by SC4BP01::BATCH RECIPE                             
14/09/2004 21:31:59.7 [SBP01   ] Fix32.thisnode.name203.A_CV set to Mst 1  mido by SC4BP01::BATCH RECIPE                            
14/09/2004 21:31:59.7 [SBP01   ] Fix32.thisnode.name204.A_CV set to Mst 2  mido by SC4BP01::BATCH RECIPE                            
14/09/2004 21:32:27.5 [SCE01   ] CE_M347_ANM_SAFETY_AREA        OK               OPEN      CE M347 SAFETY AREA                     
14/09/2004 21:32:27.7 [SCE01   ] CE_M347_ANM_SAFETY_AREA        OK               OPEN      CE M347 SAFETY AREA                     
14/09/2004 21:35:59.3 [SBP01   ] Fix32.thisnode.name1.A_CV set to Areia 1 by SC4BP01::BATCH RECIPE                                  
14/09/2004 21:35:59.3 [SBP01   ] Fix32.thisnode.name2.A_CV set to Areia 2 by SC4BP01::BATCH RECIPE                                  
14/09/2004 21:35:59.3 [SBP01   ] Fix32.thisnode.name3.A_CV set to Dolomita by SC4BP01::BATCH RECIPE                                 
14/09/2004 21:35:59.4 [SBP01   ] Fix32.thisnode.name4.A_CV set to Calcario by SC4BP01::BATCH RECIPE                                 
14/09/2004 21:35:59.4 [SBP01   ] Fix32.thisnode.name5.A_CV set to Reserva by SC4BP01::BATCH RECIPE                                  
14/09/2004 21:35:59.4 [SBP01   ] Fix32.thisnode.name6.A_CV set to Barrilha by SC4BP01::BATCH RECIPE                                 
14/09/2004 21:35:59.4 [SBP01   ] Fix32.thisnode.name7.A_CV set to Feldspato by SC4BP01::BATCH RECIPE                                
14/09/2004 21:35:59.4 [SBP01   ] Fix32.thisnode.name8.A_CV set to Sulfato by SC4BP01::BATCH RECIPE                                  
14/09/2004 21:35:59.4 [SBP01   ] Fix32.thisnode.name9.A_CV set to Po de EP by SC4BP01::BATCH RECIPE                                 
14/09/2004 21:35:59.4 [SBP01   ] Fix32.thisnode.name10.A_CV set to Grafite by SC4BP01::BATCH RECIPE                                 
14/09/2004 21:35:59.5 [SBP01   ] Fix32.thisnode.name11.A_CV set to Ferro by SC4BP01::BATCH RECIPE                                   
14/09/2004 21:35:59.5 [SBP01   ] Fix32.thisnode.name12.A_CV set to Nitrato by SC4BP01::BATCH RECIPE                                 
14/09/2004 21:35:59.5 [SBP01   ] Fix32.thisnode.name14.A_CV set to Selenio by SC4BP01::BATCH RECIPE                                 
14/09/2004 21:35:59.5 [SBP01   ] Fix32.thisnode.name15.A_CV set to Cobalto by SC4BP01::BATCH RECIPE                                 
14/09/2004 21:35:59.6 [SBP01   ] Fix32.thisnode.name16.A_CV set to Ferro by SC4BP01::BATCH RECIPE                                   
14/09/2004 21:35:59.6 [SBP01   ] Fix32.thisnode.name20.A_CV set to Caco by SC4BP01::BATCH RECIPE                                    
14/09/2004 21:35:59.6 [SBP01   ] Fix32.thisnode.name50.A_CV set to  gua by SC4BP01::BATCH RECIPE                                    
14/09/2004 21:35:59.6 [SBP01   ] Fix32.thisnode.name51.A_CV set to Vapor by SC4BP01::BATCH RECIPE                                   
14/09/2004 21:35:59.6 [SBP01   ] Fix32.thisnode.name201.A_CV set to Mst 1 seco by SC4BP01::BATCH RECIPE                             
14/09/2004 21:35:59.6 [SBP01   ] Fix32.thisnode.name202.A_CV set to Mst 2 seco by SC4BP01::BATCH RECIPE                             
14/09/2004 21:35:59.6 [SBP01   ] Fix32.thisnode.name203.A_CV set to Mst 1  mido by SC4BP01::BATCH RECIPE                            
14/09/2004 21:35:59.7 [SBP01   ] Fix32.thisnode.name204.A_CV set to Mst 2  mido by SC4BP01::BATCH RECIPE                            
14/09/2004 21:36:32.4 [SCE01   ] CE_M601_ANM_SAFETY_AREA        CFN             CLOSE      CE M601 SAFETY AREA                     
14/09/2004 21:36:32.6 [SCE01   ] CE_M601_ANM_SAFETY_AREA        CFN             CLOSE      CE M601 SAFETY AREA                     
14/09/2004 21:36:43.6 [SCE01   ] CE_M601_ANM_SAFETY_AREA        OK               OPEN      CE M601 SAFETY AREA                     
14/09/2004 21:36:44.4 [SCE01   ] CE_M601_ANM_SAFETY_AREA        OK               OPEN      CE M601 SAFETY AREA                     
14/09/2004 21:39:01.7 [SBP01   ] Fix32.sbp01.alltime1.f_cv set to 1 by SC4BP01::BATCH RECIPE                                        
14/09/2004 21:39:59.6 [SBP01   ] Fix32.thisnode.name1.A_CV set to Areia 1 by SC4BP01::BATCH RECIPE                                  
14/09/2004 21:39:59.6 [SBP01   ] Fix32.thisnode.name2.A_CV set to Areia 2 by SC4BP01::BATCH RECIPE                                  
14/09/2004 21:39:59.6 [SBP01   ] Fix32.thisnode.name3.A_CV set to Dolomita by SC4BP01::BATCH RECIPE                                 
14/09/2004 21:39:59.7 [SBP01   ] Fix32.thisnode.name4.A_CV set to Calcario by SC4BP01::BATCH RECIPE                                 
14/09/2004 21:39:59.7 [SBP01   ] Fix32.thisnode.name5.A_CV set to Reserva by SC4BP01::BATCH RECIPE                                  
14/09/2004 21:39:59.7 [SBP01   ] Fix32.thisnode.name6.A_CV set to Barrilha by SC4BP01::BATCH RECIPE                                 
14/09/2004 21:39:59.7 [SBP01   ] Fix32.thisnode.name7.A_CV set to Feldspato by SC4BP01::BATCH RECIPE                                
14/09/2004 21:39:59.7 [SBP01   ] Fix32.thisnode.name8.A_CV set to Sulfato by SC4BP01::BATCH RECIPE                                  
14/09/2004 21:39:59.7 [SBP01   ] Fix32.thisnode.name9.A_CV set to Po de EP by SC4BP01::BATCH RECIPE                                 
14/09/2004 21:39:59.7 [SBP01   ] Fix32.thisnode.name10.A_CV set to Grafite by SC4BP01::BATCH RECIPE                                 
14/09/2004 21:39:59.7 [SBP01   ] Fix32.thisnode.name11.A_CV set to Ferro by SC4BP01::BATCH RECIPE                                   
14/09/2004 21:39:59.7 [SBP01   ] Fix32.thisnode.name12.A_CV set to Nitrato by SC4BP01::BATCH RECIPE                                 
14/09/2004 21:39:59.8 [SBP01   ] Fix32.thisnode.name14.A_CV set to Selenio by SC4BP01::BATCH RECIPE                                 
14/09/2004 21:39:59.8 [SBP01   ] Fix32.thisnode.name15.A_CV set to Cobalto by SC4BP01::BATCH RECIPE                                 
14/09/2004 21:39:59.8 [SBP01   ] Fix32.thisnode.name16.A_CV set to Ferro by SC4BP01::BATCH RECIPE                                   
14/09/2004 21:39:59.8 [SBP01   ] Fix32.thisnode.name20.A_CV set to Caco by SC4BP01::BATCH RECIPE                                    
14/09/2004 21:39:59.8 [SBP01   ] Fix32.thisnode.name50.A_CV set to  gua by SC4BP01::BATCH RECIPE                                    
14/09/2004 21:39:59.8 [SBP01   ] Fix32.thisnode.name51.A_CV set to Vapor by SC4BP01::BATCH RECIPE                                   
14/09/2004 21:39:59.8 [SBP01   ] Fix32.thisnode.name201.A_CV set to Mst 1 seco by SC4BP01::BATCH RECIPE                             
14/09/2004 21:39:59.9 [SBP01   ] Fix32.thisnode.name202.A_CV set to Mst 2 seco by SC4BP01::BATCH RECIPE                             
14/09/2004 21:39:59.9 [SBP01   ] Fix32.thisnode.name203.A_CV set to Mst 1  mido by SC4BP01::BATCH RECIPE                            
14/09/2004 21:39:59.9 [SBP01   ] Fix32.thisnode.name204.A_CV set to Mst 2  mido by SC4BP01::BATCH RECIPE                            
14/09/2004 21:40:29.4 [SBP01   ] Fix32.sbp01.Bu1_gate_permission.f_cv set to 0 by SC4BP01::BATCH RECIPE                             
14/09/2004 21:43:59.3 [SBP01   ] Fix32.thisnode.name1.A_CV set to Areia 1 by SC4BP01::BATCH RECIPE                                  
14/09/2004 21:43:59.4 [SBP01   ] Fix32.thisnode.name2.A_CV set to Areia 2 by SC4BP01::BATCH RECIPE                                  
14/09/2004 21:43:59.4 [SBP01   ] Fix32.thisnode.name3.A_CV set to Dolomita by SC4BP01::BATCH RECIPE                                 
14/09/2004 21:43:59.4 [SBP01   ] Fix32.thisnode.name4.A_CV set to Calcario by SC4BP01::BATCH RECIPE                                 
14/09/2004 21:43:59.4 [SBP01   ] Fix32.thisnode.name5.A_CV set to Reserva by SC4BP01::BATCH RECIPE                                  
14/09/2004 21:43:59.4 [SBP01   ] Fix32.thisnode.name6.A_CV set to Barrilha by SC4BP01::BATCH RECIPE                                 
14/09/2004 21:43:59.5 [SBP01   ] Fix32.thisnode.name7.A_CV set to Feldspato by SC4BP01::BATCH RECIPE                                
14/09/2004 21:43:59.5 [SBP01   ] Fix32.thisnode.name8.A_CV set to Sulfato by SC4BP01::BATCH RECIPE                                  
14/09/2004 21:43:59.5 [SBP01   ] Fix32.thisnode.name9.A_CV set to Po de EP by SC4BP01::BATCH RECIPE                                 
14/09/2004 21:43:59.5 [SBP01   ] Fix32.thisnode.name10.A_CV set to Grafite by SC4BP01::BATCH RECIPE                                 
14/09/2004 21:43:59.5 [SBP01   ] Fix32.thisnode.name11.A_CV set to Ferro by SC4BP01::BATCH RECIPE                                   
14/09/2004 21:43:59.6 [SBP01   ] Fix32.thisnode.name12.A_CV set to Nitrato by SC4BP01::BATCH RECIPE                                 
14/09/2004 21:43:59.6 [SBP01   ] Fix32.thisnode.name14.A_CV set to Selenio by SC4BP01::BATCH RECIPE                                 
14/09/2004 21:43:59.6 [SBP01   ] Fix32.thisnode.name15.A_CV set to Cobalto by SC4BP01::BATCH RECIPE                                 
14/09/2004 21:43:59.6 [SBP01   ] Fix32.thisnode.name16.A_CV set to Ferro by SC4BP01::BATCH RECIPE                                   
14/09/2004 21:43:59.6 [SBP01   ] Fix32.thisnode.name20.A_CV set to Caco by SC4BP01::BATCH RECIPE                                    
14/09/2004 21:43:59.6 [SBP01   ] Fix32.thisnode.name50.A_CV set to  gua by SC4BP01::BATCH RECIPE                                    
14/09/2004 21:43:59.7 [SBP01   ] Fix32.thisnode.name51.A_CV set to Vapor by SC4BP01::BATCH RECIPE                                   
14/09/2004 21:43:59.7 [SBP01   ] Fix32.thisnode.name201.A_CV set to Mst 1 seco by SC4BP01::BATCH RECIPE                             
14/09/2004 21:43:59.7 [SBP01   ] Fix32.thisnode.name202.A_CV set to Mst 2 seco by SC4BP01::BATCH RECIPE                             
14/09/2004 21:43:59.7 [SBP01   ] Fix32.thisnode.name203.A_CV set to Mst 1  mido by SC4BP01::BATCH RECIPE                            
14/09/2004 21:43:59.7 [SBP01   ] Fix32.thisnode.name204.A_CV set to Mst 2  mido by SC4BP01::BATCH RECIPE                            
14/09/2004 21:46:39.2 [SHE10   ] RS_BA1006 ALARM is acknowledged by SC4HE10::HOT END OPERATOR                                       
14/09/2004 21:46:40.8 [SHE03   ] ETE_LOW_LEVEL4 ALARM is acknowledged by SC4HE10::HOT END OPERATOR                                  
14/09/2004 21:46:39.2 [SHE10   ] RS_BA1006 ALARM is acknowledged by SC4HE10::HOT END OPERATOR                                       
14/09/2004 21:46:40.8 [SHE03   ] ETE_LOW_LEVEL4 ALARM is acknowledged by SC4HE10::HOT END OPERATOR                                  
14/09/2004 21:46:41.7 [SHE03   ] ETE_FALH_NO_VALV ALARM is acknowledged by SC4HE10::HOT END OPERATOR                                
14/09/2004 21:46:42.7 [SHE03   ] ETE_LOW_LEVEL ALARM is acknowledged by SC4HE10::HOT END OPERATOR                                   
14/09/2004 21:46:43.8 [SHE03   ] ETE_HIGH_LEVEL ALARM is acknowledged by SC4HE10::HOT END OPERATOR                                  
14/09/2004 21:46:43.9 [SHE03   ] ETE_HIGH_LEVEL ALARM is acknowledged by SC4HE10::HOT END OPERATOR                                  
14/09/2004 21:46:55.7 [SHE03   ] ETE_LOW_LEVEL4 ALARM is acknowledged by SC4HE10::HOT END OPERATOR                                  
14/09/2004 21:46:55.8 [SHE03   ] ETE_LOW_LEVEL4 ALARM is acknowledged by SC4HE10::HOT END OPERATOR                                  
14/09/2004 21:47:08.4 [SBP01   ] S1_MANUAL_MOISTURE                               418      S1  manual  moisture                    
14/09/2004 21:47:08.4 [SBP01   ] Fix32.SBP01.S1_manual_moisture.F_CV set to 418 by SC4BP01::BATCH RECIPE                            
14/09/2004 21:47:18.3 [SBP01   ] Fix32.sbp01.fedit01_locked.f_cv set to  21167 by SC4BP01::BATCH RECIPE                             
14/09/2004 21:47:18.7 [SBP01   ] Fix32.sbp01.fedit01_read.f_cv set to  1 by SC4BP01::BATCH RECIPE                                   
14/09/2004 21:47:18.7 [SBP01   ] Fix32.sbp01.Fedit01_edit.f_cv set to 0 by SC4BP01::BATCH RECIPE                                    
14/09/2004 21:47:24.6 [SBP01   ] Fix32.sbp01.Fedit01_locked.f_cv set to 0 by SC4BP01::BATCH RECIPE                                  
14/09/2004 21:47:59.3 [SBP01   ] Fix32.thisnode.name1.A_CV set to Areia 1 by SC4BP01::BATCH RECIPE                                  
14/09/2004 21:47:59.3 [SBP01   ] Fix32.thisnode.name2.A_CV set to Areia 2 by SC4BP01::BATCH RECIPE                                  
14/09/2004 21:47:59.3 [SBP01   ] Fix32.thisnode.name3.A_CV set to Dolomita by SC4BP01::BATCH RECIPE                                 
14/09/2004 21:47:59.3 [SBP01   ] Fix32.thisnode.name4.A_CV set to Calcario by SC4BP01::BATCH RECIPE                                 
14/09/2004 21:47:59.4 [SBP01   ] Fix32.thisnode.name5.A_CV set to Reserva by SC4BP01::BATCH RECIPE                                  
14/09/2004 21:47:59.4 [SBP01   ] Fix32.thisnode.name6.A_CV set to Barrilha by SC4BP01::BATCH RECIPE                                 
14/09/2004 21:47:59.4 [SBP01   ] Fix32.thisnode.name7.A_CV set to Feldspato by SC4BP01::BATCH RECIPE                                
14/09/2004 21:47:59.4 [SBP01   ] Fix32.thisnode.name8.A_CV set to Sulfato by SC4BP01::BATCH RECIPE                                  
14/09/2004 21:47:59.4 [SBP01   ] Fix32.thisnode.name9.A_CV set to Po de EP by SC4BP01::BATCH RECIPE                                 
14/09/2004 21:47:59.4 [SBP01   ] Fix32.thisnode.name10.A_CV set to Grafite by SC4BP01::BATCH RECIPE                                 
14/09/2004 21:47:59.4 [SBP01   ] Fix32.thisnode.name11.A_CV set to Ferro by SC4BP01::BATCH RECIPE                                   
14/09/2004 21:47:59.5 [SBP01   ] Fix32.thisnode.name12.A_CV set to Nitrato by SC4BP01::BATCH RECIPE                                 
14/09/2004 21:47:59.5 [SBP01   ] Fix32.thisnode.name14.A_CV set to Selenio by SC4BP01::BATCH RECIPE                                 
14/09/2004 21:47:59.5 [SBP01   ] Fix32.thisnode.name15.A_CV set to Cobalto by SC4BP01::BATCH RECIPE                                 
14/09/2004 21:47:59.5 [SBP01   ] Fix32.thisnode.name16.A_CV set to Ferro by SC4BP01::BATCH RECIPE                                   
14/09/2004 21:47:59.5 [SBP01   ] Fix32.thisnode.name20.A_CV set to Caco by SC4BP01::BATCH RECIPE                                    
14/09/2004 21:47:59.5 [SBP01   ] Fix32.thisnode.name50.A_CV set to  gua by SC4BP01::BATCH RECIPE                                    
14/09/2004 21:47:59.5 [SBP01   ] Fix32.thisnode.name51.A_CV set to Vapor by SC4BP01::BATCH RECIPE                                   
14/09/2004 21:47:59.5 [SBP01   ] Fix32.thisnode.name201.A_CV set to Mst 1 seco by SC4BP01::BATCH RECIPE                             
14/09/2004 21:47:59.5 [SBP01   ] Fix32.thisnode.name202.A_CV set to Mst 2 seco by SC4BP01::BATCH RECIPE                             
14/09/2004 21:47:59.6 [SBP01   ] Fix32.thisnode.name203.A_CV set to Mst 1  mido by SC4BP01::BATCH RECIPE                            
14/09/2004 21:47:59.6 [SBP01   ] Fix32.thisnode.name204.A_CV set to Mst 2  mido by SC4BP01::BATCH RECIPE                            
14/09/2004 21:51:31.5 [SBP01   ] S1_MANUAL_MOISTURE                               440      S1  manual  moisture                    
14/09/2004 21:51:31.5 [SBP01   ] Fix32.SBP01.S1_manual_moisture.F_CV set to 440 by SC4BP01::BATCH RECIPE                            
14/09/2004 21:51:57.2 [SBP01   ] Fix32.sbp01.alltime1.f_cv set to 1 by SC4BP01::BATCH RECIPE                                        
14/09/2004 21:51:59.3 [SBP01   ] Fix32.thisnode.name1.A_CV set to Areia 1 by SC4BP01::BATCH RECIPE                                  
14/09/2004 21:51:59.3 [SBP01   ] Fix32.thisnode.name2.A_CV set to Areia 2 by SC4BP01::BATCH RECIPE                                  
14/09/2004 21:51:59.3 [SBP01   ] Fix32.thisnode.name3.A_CV set to Dolomita by SC4BP01::BATCH RECIPE                                 
14/09/2004 21:51:59.4 [SBP01   ] Fix32.thisnode.name4.A_CV set to Calcario by SC4BP01::BATCH RECIPE                                 
14/09/2004 21:51:59.4 [SBP01   ] Fix32.thisnode.name5.A_CV set to Reserva by SC4BP01::BATCH RECIPE                                  
14/09/2004 21:51:59.4 [SBP01   ] Fix32.thisnode.name6.A_CV set to Barrilha by SC4BP01::BATCH RECIPE                                 
14/09/2004 21:51:59.4 [SBP01   ] Fix32.thisnode.name7.A_CV set to Feldspato by SC4BP01::BATCH RECIPE                                
14/09/2004 21:51:59.4 [SBP01   ] Fix32.thisnode.name8.A_CV set to Sulfato by SC4BP01::BATCH RECIPE                                  
14/09/2004 21:51:59.5 [SBP01   ] Fix32.thisnode.name9.A_CV set to Po de EP by SC4BP01::BATCH RECIPE                                 
14/09/2004 21:51:59.5 [SBP01   ] Fix32.thisnode.name10.A_CV set to Grafite by SC4BP01::BATCH RECIPE                                 
14/09/2004 21:51:59.5 [SBP01   ] Fix32.thisnode.name11.A_CV set to Ferro by SC4BP01::BATCH RECIPE                                   
14/09/2004 21:51:59.5 [SBP01   ] Fix32.thisnode.name12.A_CV set to Nitrato by SC4BP01::BATCH RECIPE                                 
14/09/2004 21:51:59.5 [SBP01   ] Fix32.thisnode.name14.A_CV set to Selenio by SC4BP01::BATCH RECIPE                                 
14/09/2004 21:51:59.6 [SBP01   ] Fix32.thisnode.name15.A_CV set to Cobalto by SC4BP01::BATCH RECIPE                                 
14/09/2004 21:51:59.6 [SBP01   ] Fix32.thisnode.name16.A_CV set to Ferro by SC4BP01::BATCH RECIPE                                   
14/09/2004 21:51:59.6 [SBP01   ] Fix32.thisnode.name20.A_CV set to Caco by SC4BP01::BATCH RECIPE                                    
14/09/2004 21:51:59.6 [SBP01   ] Fix32.thisnode.name50.A_CV set to  gua by SC4BP01::BATCH RECIPE                                    
14/09/2004 21:51:59.7 [SBP01   ] Fix32.thisnode.name51.A_CV set to Vapor by SC4BP01::BATCH RECIPE                                   
14/09/2004 21:51:59.7 [SBP01   ] Fix32.thisnode.name201.A_CV set to Mst 1 seco by SC4BP01::BATCH RECIPE                             
14/09/2004 21:51:59.7 [SBP01   ] Fix32.thisnode.name202.A_CV set to Mst 2 seco by SC4BP01::BATCH RECIPE                             
14/09/2004 21:51:59.7 [SBP01   ] Fix32.thisnode.name203.A_CV set to Mst 1  mido by SC4BP01::BATCH RECIPE                            
14/09/2004 21:51:59.7 [SBP01   ] Fix32.thisnode.name204.A_CV set to Mst 2  mido by SC4BP01::BATCH RECIPE                            
14/09/2004 21:52:07.8 [SBP01   ] Fix32.sbp01.fedit01_locked.f_cv set to  21167 by SC4BP01::BATCH RECIPE                             
14/09/2004 21:52:08.1 [SBP01   ] Fix32.sbp01.fedit01_read.f_cv set to  1 by SC4BP01::BATCH RECIPE                                   
14/09/2004 21:52:08.1 [SBP01   ] Fix32.sbp01.Fedit01_edit.f_cv set to 0 by SC4BP01::BATCH RECIPE                                    
14/09/2004 21:52:10.8 [SBP01   ] Fix32.sbp01.Fedit01_locked.f_cv set to 0 by SC4BP01::BATCH RECIPE                                  
14/09/2004 21:52:50.5 [SBP01   ] Furnace_hopper_ALARM_09 ALARM is acknowledged by SC4BP01::BATCH RECIPE                             
14/09/2004 21:52:50.5 [SBP01   ] Fix32.SBP01.Furnace_hopper_ALARM_09.F_CV set to 0 by SC4BP01::BATCH RECIPE                         
14/09/2004 21:52:50.8 [SBP01   ] Fix32.SBP01.Furnace_hopper_ALARM_09.F_CV set to 0 by SC4BP01::BATCH RECIPE                         
14/09/2004 21:52:57.5 [SBP01   ] FURNACE_HOPPER_ALARM_WORD ALARM is acknowledged by SC4BP01::BATCH RECIPE                           
14/09/2004 21:52:57.5 [SBP01   ] FURNACE_HOPPER_ALARM_WORD ALARM is acknowledged by SC4BP01::BATCH RECIPE                           
14/09/2004 21:53:05.4 [SBP01   ] Fix32.sbp01.alltime1.f_cv set to 1 by SC4BP01::BATCH RECIPE                                        
14/09/2004 21:53:08.0 [SBP01   ] EXTRA_CALL                                         1      EXTRA CALL = 1                          
14/09/2004 21:53:08.0 [SBP01   ] Fix32.SBP01.extra_call.f_CV set to 1 by SC4BP01::BATCH RECIPE                                      
14/09/2004 21:53:15.4 [SCE01   ] CE_M601_ANM_SAFETY_AREA        CFN             CLOSE      CE M601 SAFETY AREA                     
14/09/2004 21:53:15.7 [SCE01   ] CE_M601_ANM_SAFETY_AREA        CFN             CLOSE      CE M601 SAFETY AREA                     
14/09/2004 21:53:18.6 [SBP01   ] Fix32.sbp01.fedit01_locked.f_cv set to  21167 by SC4BP01::BATCH RECIPE                             
14/09/2004 21:53:18.9 [SBP01   ] Fix32.sbp01.fedit01_read.f_cv set to  1 by SC4BP01::BATCH RECIPE                                   
14/09/2004 21:53:19.0 [SBP01   ] Fix32.sbp01.Fedit01_edit.f_cv set to 0 by SC4BP01::BATCH RECIPE                                    
14/09/2004 21:54:29.2 [SBP01   ] Fix32.sbp01.Fedit01_locked.f_cv set to 0 by SC4BP01::BATCH RECIPE                                  
14/09/2004 21:54:36.5 [SBP01   ] Fix32.sbp01.alltime1.f_cv set to 1 by SC4BP01::BATCH RECIPE                                        
14/09/2004 21:54:56.4 [SCE01   ] CE_M601_ANM_SAFETY_AREA        OK               OPEN      CE M601 SAFETY AREA                     
14/09/2004 21:54:56.7 [SCE01   ] CE_M601_ANM_SAFETY_AREA        OK               OPEN      CE M601 SAFETY AREA                     
