14/09/2004 04:00:00.4 [SBP01   ] Fix32.thisnode.name1.A_CV set to Areia 1 by SC4BP01::BATCH RECIPE                                  
14/09/2004 04:00:00.4 [SBP01   ] Fix32.thisnode.name2.A_CV set to Areia 2 by SC4BP01::BATCH RECIPE                                  
14/09/2004 04:00:00.4 [SBP01   ] Fix32.thisnode.name3.A_CV set to Dolomita by SC4BP01::BATCH RECIPE                                 
14/09/2004 04:00:00.5 [SBP01   ] Fix32.thisnode.name4.A_CV set to Calcario by SC4BP01::BATCH RECIPE                                 
14/09/2004 04:00:00.5 [SBP01   ] Fix32.thisnode.name5.A_CV set to Reserva by SC4BP01::BATCH RECIPE                                  
14/09/2004 04:00:00.5 [SBP01   ] Fix32.thisnode.name6.A_CV set to Barrilha by SC4BP01::BATCH RECIPE                                 
14/09/2004 04:00:00.5 [SBP01   ] Fix32.thisnode.name7.A_CV set to Feldspato by SC4BP01::BATCH RECIPE                                
14/09/2004 04:00:00.6 [SBP01   ] Fix32.thisnode.name8.A_CV set to Sulfato by SC4BP01::BATCH RECIPE                                  
14/09/2004 04:00:00.6 [SBP01   ] Fix32.thisnode.name9.A_CV set to Po de EP by SC4BP01::BATCH RECIPE                                 
14/09/2004 04:00:00.6 [SBP01   ] Fix32.thisnode.name10.A_CV set to Grafite by SC4BP01::BATCH RECIPE                                 
14/09/2004 04:00:00.6 [SBP01   ] Fix32.thisnode.name11.A_CV set to Ferro by SC4BP01::BATCH RECIPE                                   
14/09/2004 04:00:00.6 [SBP01   ] Fix32.thisnode.name12.A_CV set to Nitrato by SC4BP01::BATCH RECIPE                                 
14/09/2004 04:00:00.7 [SBP01   ] Fix32.thisnode.name14.A_CV set to Selenio by SC4BP01::BATCH RECIPE                                 
14/09/2004 04:00:00.7 [SBP01   ] Fix32.thisnode.name15.A_CV set to Cobalto by SC4BP01::BATCH RECIPE                                 
14/09/2004 04:00:00.7 [SBP01   ] Fix32.thisnode.name16.A_CV set to Ferro by SC4BP01::BATCH RECIPE                                   
14/09/2004 04:00:00.7 [SBP01   ] Fix32.thisnode.name20.A_CV set to Caco by SC4BP01::BATCH RECIPE                                    
14/09/2004 04:00:00.7 [SBP01   ] Fix32.thisnode.name50.A_CV set to  gua by SC4BP01::BATCH RECIPE                                    
14/09/2004 04:00:00.7 [SBP01   ] Fix32.thisnode.name51.A_CV set to Vapor by SC4BP01::BATCH RECIPE                                   
14/09/2004 04:00:00.7 [SBP01   ] Fix32.thisnode.name201.A_CV set to Mst 1 seco by SC4BP01::BATCH RECIPE                             
14/09/2004 04:00:00.7 [SBP01   ] Fix32.thisnode.name202.A_CV set to Mst 2 seco by SC4BP01::BATCH RECIPE                             
14/09/2004 04:00:00.8 [SBP01   ] Fix32.thisnode.name203.A_CV set to Mst 1  mido by SC4BP01::BATCH RECIPE                            
14/09/2004 04:00:01.5 [SBP01   ] Fix32.thisnode.name204.A_CV set to Mst 2  mido by SC4BP01::BATCH RECIPE                            
14/09/2004 04:00:58.3 [SBP01   ] PROFI_PLCF13_SLAVE7_DIAG_1 ALARM is acknowledged by WC4BP01::BATCH PLANT OPERATOR                  
14/09/2004 04:02:08.6 [SCE01   ] Fix32.SCE01.PAT15_RASP.F_CV set to 1 by WC4CE02::COLD END OPERATOR                                 
14/09/2004 04:03:37.8 [SBP01   ] Fix32.sbp01.alltime1.f_cv set to 1 by SC4BP01::BATCH RECIPE                                        
14/09/2004 04:03:59.8 [SBP01   ] Fix32.thisnode.name1.A_CV set to Areia 1 by SC4BP01::BATCH RECIPE                                  
14/09/2004 04:03:59.9 [SBP01   ] Fix32.thisnode.name2.A_CV set to Areia 2 by SC4BP01::BATCH RECIPE                                  
14/09/2004 04:03:59.9 [SBP01   ] Fix32.thisnode.name3.A_CV set to Dolomita by SC4BP01::BATCH RECIPE                                 
14/09/2004 04:03:59.9 [SBP01   ] Fix32.thisnode.name4.A_CV set to Calcario by SC4BP01::BATCH RECIPE                                 
14/09/2004 04:03:59.9 [SBP01   ] Fix32.thisnode.name5.A_CV set to Reserva by SC4BP01::BATCH RECIPE                                  
14/09/2004 04:04:00.0 [SBP01   ] Fix32.thisnode.name6.A_CV set to Barrilha by SC4BP01::BATCH RECIPE                                 
14/09/2004 04:04:00.0 [SBP01   ] Fix32.thisnode.name7.A_CV set to Feldspato by SC4BP01::BATCH RECIPE                                
14/09/2004 04:04:00.0 [SBP01   ] Fix32.thisnode.name8.A_CV set to Sulfato by SC4BP01::BATCH RECIPE                                  
14/09/2004 04:04:00.0 [SBP01   ] Fix32.thisnode.name9.A_CV set to Po de EP by SC4BP01::BATCH RECIPE                                 
14/09/2004 04:04:00.1 [SBP01   ] Fix32.thisnode.name10.A_CV set to Grafite by SC4BP01::BATCH RECIPE                                 
14/09/2004 04:04:00.1 [SBP01   ] Fix32.thisnode.name11.A_CV set to Ferro by SC4BP01::BATCH RECIPE                                   
14/09/2004 04:04:00.1 [SBP01   ] Fix32.thisnode.name12.A_CV set to Nitrato by SC4BP01::BATCH RECIPE                                 
14/09/2004 04:04:00.1 [SBP01   ] Fix32.thisnode.name14.A_CV set to Selenio by SC4BP01::BATCH RECIPE                                 
14/09/2004 04:04:00.1 [SBP01   ] Fix32.thisnode.name15.A_CV set to Cobalto by SC4BP01::BATCH RECIPE                                 
14/09/2004 04:04:00.1 [SBP01   ] Fix32.thisnode.name16.A_CV set to Ferro by SC4BP01::BATCH RECIPE                                   
14/09/2004 04:04:00.2 [SBP01   ] Fix32.thisnode.name20.A_CV set to Caco by SC4BP01::BATCH RECIPE                                    
14/09/2004 04:04:00.2 [SBP01   ] Fix32.thisnode.name50.A_CV set to  gua by SC4BP01::BATCH RECIPE                                    
14/09/2004 04:04:00.2 [SBP01   ] Fix32.thisnode.name51.A_CV set to Vapor by SC4BP01::BATCH RECIPE                                   
14/09/2004 04:04:00.2 [SBP01   ] Fix32.thisnode.name201.A_CV set to Mst 1 seco by SC4BP01::BATCH RECIPE                             
14/09/2004 04:04:00.3 [SBP01   ] Fix32.thisnode.name202.A_CV set to Mst 2 seco by SC4BP01::BATCH RECIPE                             
14/09/2004 04:04:00.3 [SBP01   ] Fix32.thisnode.name203.A_CV set to Mst 1  mido by SC4BP01::BATCH RECIPE                            
14/09/2004 04:04:00.3 [SBP01   ] Fix32.thisnode.name204.A_CV set to Mst 2  mido by SC4BP01::BATCH RECIPE                            
14/09/2004 04:04:54.1 [SCE07   ] Fix32.SCE07.EDGE_STRESS_UNITS.F_CV set to  0 by WC4CE04::COLD END OPERATOR                         
14/09/2004 04:07:59.8 [SBP01   ] Fix32.thisnode.name1.A_CV set to Areia 1 by SC4BP01::BATCH RECIPE                                  
14/09/2004 04:07:59.9 [SBP01   ] Fix32.thisnode.name2.A_CV set to Areia 2 by SC4BP01::BATCH RECIPE                                  
14/09/2004 04:07:59.9 [SBP01   ] Fix32.thisnode.name3.A_CV set to Dolomita by SC4BP01::BATCH RECIPE                                 
14/09/2004 04:07:59.9 [SBP01   ] Fix32.thisnode.name4.A_CV set to Calcario by SC4BP01::BATCH RECIPE                                 
14/09/2004 04:07:59.9 [SBP01   ] Fix32.thisnode.name5.A_CV set to Reserva by SC4BP01::BATCH RECIPE                                  
14/09/2004 04:07:59.9 [SBP01   ] Fix32.thisnode.name6.A_CV set to Barrilha by SC4BP01::BATCH RECIPE                                 
14/09/2004 04:08:00.0 [SBP01   ] Fix32.thisnode.name7.A_CV set to Feldspato by SC4BP01::BATCH RECIPE                                
14/09/2004 04:08:00.0 [SBP01   ] Fix32.thisnode.name8.A_CV set to Sulfato by SC4BP01::BATCH RECIPE                                  
14/09/2004 04:08:00.0 [SBP01   ] Fix32.thisnode.name9.A_CV set to Po de EP by SC4BP01::BATCH RECIPE                                 
14/09/2004 04:08:00.0 [SBP01   ] Fix32.thisnode.name10.A_CV set to Grafite by SC4BP01::BATCH RECIPE                                 
14/09/2004 04:08:00.0 [SBP01   ] Fix32.thisnode.name11.A_CV set to Ferro by SC4BP01::BATCH RECIPE                                   
14/09/2004 04:08:00.1 [SBP01   ] Fix32.thisnode.name12.A_CV set to Nitrato by SC4BP01::BATCH RECIPE                                 
14/09/2004 04:08:00.1 [SBP01   ] Fix32.thisnode.name14.A_CV set to Selenio by SC4BP01::BATCH RECIPE                                 
14/09/2004 04:08:00.1 [SBP01   ] Fix32.thisnode.name15.A_CV set to Cobalto by SC4BP01::BATCH RECIPE                                 
14/09/2004 04:08:00.1 [SBP01   ] Fix32.thisnode.name16.A_CV set to Ferro by SC4BP01::BATCH RECIPE                                   
14/09/2004 04:08:00.1 [SBP01   ] Fix32.thisnode.name20.A_CV set to Caco by SC4BP01::BATCH RECIPE                                    
14/09/2004 04:08:00.2 [SBP01   ] Fix32.thisnode.name50.A_CV set to  gua by SC4BP01::BATCH RECIPE                                    
14/09/2004 04:08:00.2 [SBP01   ] Fix32.thisnode.name51.A_CV set to Vapor by SC4BP01::BATCH RECIPE                                   
14/09/2004 04:08:00.2 [SBP01   ] Fix32.thisnode.name201.A_CV set to Mst 1 seco by SC4BP01::BATCH RECIPE                             
14/09/2004 04:08:00.2 [SBP01   ] Fix32.thisnode.name202.A_CV set to Mst 2 seco by SC4BP01::BATCH RECIPE                             
14/09/2004 04:08:00.2 [SBP01   ] Fix32.thisnode.name203.A_CV set to Mst 1  mido by SC4BP01::BATCH RECIPE                            
14/09/2004 04:08:00.2 [SBP01   ] Fix32.thisnode.name204.A_CV set to Mst 2  mido by SC4BP01::BATCH RECIPE                            
14/09/2004 04:11:59.9 [SCE01   ] CE_M601_ANM_SAFETY_AREA        CFN             CLOSE      CE M601 SAFETY AREA                     
14/09/2004 04:11:59.8 [SBP01   ] Fix32.thisnode.name1.A_CV set to Areia 1 by SC4BP01::BATCH RECIPE                                  
14/09/2004 04:12:01.9 [SCE01   ] CE_M601_ANM_SAFETY_AREA        CFN             CLOSE      CE M601 SAFETY AREA                     
14/09/2004 04:11:59.9 [SBP01   ] Fix32.thisnode.name2.A_CV set to Areia 2 by SC4BP01::BATCH RECIPE                                  
14/09/2004 04:11:59.9 [SBP01   ] Fix32.thisnode.name3.A_CV set to Dolomita by SC4BP01::BATCH RECIPE                                 
14/09/2004 04:11:59.9 [SBP01   ] Fix32.thisnode.name4.A_CV set to Calcario by SC4BP01::BATCH RECIPE                                 
14/09/2004 04:11:59.9 [SBP01   ] Fix32.thisnode.name5.A_CV set to Reserva by SC4BP01::BATCH RECIPE                                  
14/09/2004 04:11:59.9 [SBP01   ] Fix32.thisnode.name6.A_CV set to Barrilha by SC4BP01::BATCH RECIPE                                 
14/09/2004 04:11:59.9 [SBP01   ] Fix32.thisnode.name7.A_CV set to Feldspato by SC4BP01::BATCH RECIPE                                
14/09/2004 04:12:00.0 [SBP01   ] Fix32.thisnode.name8.A_CV set to Sulfato by SC4BP01::BATCH RECIPE                                  
14/09/2004 04:12:00.0 [SBP01   ] Fix32.thisnode.name9.A_CV set to Po de EP by SC4BP01::BATCH RECIPE                                 
14/09/2004 04:12:00.0 [SBP01   ] Fix32.thisnode.name10.A_CV set to Grafite by SC4BP01::BATCH RECIPE                                 
14/09/2004 04:12:00.0 [SBP01   ] Fix32.thisnode.name11.A_CV set to Ferro by SC4BP01::BATCH RECIPE                                   
14/09/2004 04:12:00.0 [SBP01   ] Fix32.thisnode.name12.A_CV set to Nitrato by SC4BP01::BATCH RECIPE                                 
14/09/2004 04:12:00.0 [SBP01   ] Fix32.thisnode.name14.A_CV set to Selenio by SC4BP01::BATCH RECIPE                                 
14/09/2004 04:12:00.1 [SBP01   ] Fix32.thisnode.name15.A_CV set to Cobalto by SC4BP01::BATCH RECIPE                                 
14/09/2004 04:12:00.1 [SBP01   ] Fix32.thisnode.name16.A_CV set to Ferro by SC4BP01::BATCH RECIPE                                   
14/09/2004 04:12:00.1 [SBP01   ] Fix32.thisnode.name20.A_CV set to Caco by SC4BP01::BATCH RECIPE                                    
14/09/2004 04:12:00.2 [SBP01   ] Fix32.thisnode.name50.A_CV set to  gua by SC4BP01::BATCH RECIPE                                    
14/09/2004 04:12:00.2 [SBP01   ] Fix32.thisnode.name51.A_CV set to Vapor by SC4BP01::BATCH RECIPE                                   
14/09/2004 04:12:00.2 [SBP01   ] Fix32.thisnode.name201.A_CV set to Mst 1 seco by SC4BP01::BATCH RECIPE                             
14/09/2004 04:12:00.2 [SBP01   ] Fix32.thisnode.name202.A_CV set to Mst 2 seco by SC4BP01::BATCH RECIPE                             
14/09/2004 04:12:00.2 [SBP01   ] Fix32.thisnode.name203.A_CV set to Mst 1  mido by SC4BP01::BATCH RECIPE                            
14/09/2004 04:12:00.2 [SBP01   ] Fix32.thisnode.name204.A_CV set to Mst 2  mido by SC4BP01::BATCH RECIPE                            
14/09/2004 04:12:20.9 [SCE01   ] CE_M601_ANM_SAFETY_AREA        OK               OPEN      CE M601 SAFETY AREA                     
14/09/2004 04:12:20.0 [SCE01   ] CE_M601_ANM_SAFETY_AREA        OK               OPEN      CE M601 SAFETY AREA                     
14/09/2004 04:15:59.8 [SBP01   ] Fix32.thisnode.name1.A_CV set to Areia 1 by SC4BP01::BATCH RECIPE                                  
14/09/2004 04:15:59.9 [SBP01   ] Fix32.thisnode.name2.A_CV set to Areia 2 by SC4BP01::BATCH RECIPE                                  
14/09/2004 04:15:59.9 [SBP01   ] Fix32.thisnode.name3.A_CV set to Dolomita by SC4BP01::BATCH RECIPE                                 
14/09/2004 04:15:59.9 [SBP01   ] Fix32.thisnode.name4.A_CV set to Calcario by SC4BP01::BATCH RECIPE                                 
14/09/2004 04:15:59.9 [SBP01   ] Fix32.thisnode.name5.A_CV set to Reserva by SC4BP01::BATCH RECIPE                                  
14/09/2004 04:15:59.9 [SBP01   ] Fix32.thisnode.name6.A_CV set to Barrilha by SC4BP01::BATCH RECIPE                                 
14/09/2004 04:15:59.9 [SBP01   ] Fix32.thisnode.name7.A_CV set to Feldspato by SC4BP01::BATCH RECIPE                                
14/09/2004 04:16:00.0 [SBP01   ] Fix32.thisnode.name8.A_CV set to Sulfato by SC4BP01::BATCH RECIPE                                  
14/09/2004 04:16:00.0 [SBP01   ] Fix32.thisnode.name9.A_CV set to Po de EP by SC4BP01::BATCH RECIPE                                 
14/09/2004 04:16:00.0 [SBP01   ] Fix32.thisnode.name10.A_CV set to Grafite by SC4BP01::BATCH RECIPE                                 
14/09/2004 04:16:00.0 [SBP01   ] Fix32.thisnode.name11.A_CV set to Ferro by SC4BP01::BATCH RECIPE                                   
14/09/2004 04:16:00.0 [SBP01   ] Fix32.thisnode.name12.A_CV set to Nitrato by SC4BP01::BATCH RECIPE                                 
14/09/2004 04:16:00.0 [SBP01   ] Fix32.thisnode.name14.A_CV set to Selenio by SC4BP01::BATCH RECIPE                                 
14/09/2004 04:16:00.0 [SBP01   ] Fix32.thisnode.name15.A_CV set to Cobalto by SC4BP01::BATCH RECIPE                                 
14/09/2004 04:16:00.1 [SBP01   ] Fix32.thisnode.name16.A_CV set to Ferro by SC4BP01::BATCH RECIPE                                   
14/09/2004 04:16:00.1 [SBP01   ] Fix32.thisnode.name20.A_CV set to Caco by SC4BP01::BATCH RECIPE                                    
14/09/2004 04:16:00.1 [SBP01   ] Fix32.thisnode.name50.A_CV set to  gua by SC4BP01::BATCH RECIPE                                    
14/09/2004 04:16:00.1 [SBP01   ] Fix32.thisnode.name51.A_CV set to Vapor by SC4BP01::BATCH RECIPE                                   
14/09/2004 04:16:00.2 [SBP01   ] Fix32.thisnode.name201.A_CV set to Mst 1 seco by SC4BP01::BATCH RECIPE                             
14/09/2004 04:16:00.2 [SBP01   ] Fix32.thisnode.name202.A_CV set to Mst 2 seco by SC4BP01::BATCH RECIPE                             
14/09/2004 04:16:00.2 [SBP01   ] Fix32.thisnode.name203.A_CV set to Mst 1  mido by SC4BP01::BATCH RECIPE                            
14/09/2004 04:16:00.3 [SBP01   ] Fix32.thisnode.name204.A_CV set to Mst 2  mido by SC4BP01::BATCH RECIPE                            
14/09/2004 04:20:00.3 [SBP01   ] Fix32.thisnode.name1.A_CV set to Areia 1 by SC4BP01::BATCH RECIPE                                  
14/09/2004 04:20:00.3 [SBP01   ] Fix32.thisnode.name2.A_CV set to Areia 2 by SC4BP01::BATCH RECIPE                                  
14/09/2004 04:20:00.3 [SBP01   ] Fix32.thisnode.name3.A_CV set to Dolomita by SC4BP01::BATCH RECIPE                                 
14/09/2004 04:20:00.3 [SBP01   ] Fix32.thisnode.name4.A_CV set to Calcario by SC4BP01::BATCH RECIPE                                 
14/09/2004 04:20:00.3 [SBP01   ] Fix32.thisnode.name5.A_CV set to Reserva by SC4BP01::BATCH RECIPE                                  
14/09/2004 04:20:00.4 [SBP01   ] Fix32.thisnode.name6.A_CV set to Barrilha by SC4BP01::BATCH RECIPE                                 
14/09/2004 04:20:00.4 [SBP01   ] Fix32.thisnode.name7.A_CV set to Feldspato by SC4BP01::BATCH RECIPE                                
14/09/2004 04:20:00.4 [SBP01   ] Fix32.thisnode.name8.A_CV set to Sulfato by SC4BP01::BATCH RECIPE                                  
14/09/2004 04:20:00.4 [SBP01   ] Fix32.thisnode.name9.A_CV set to Po de EP by SC4BP01::BATCH RECIPE                                 
14/09/2004 04:20:00.4 [SBP01   ] Fix32.thisnode.name10.A_CV set to Grafite by SC4BP01::BATCH RECIPE                                 
14/09/2004 04:20:00.4 [SBP01   ] Fix32.thisnode.name11.A_CV set to Ferro by SC4BP01::BATCH RECIPE                                   
14/09/2004 04:20:00.4 [SBP01   ] Fix32.thisnode.name12.A_CV set to Nitrato by SC4BP01::BATCH RECIPE                                 
14/09/2004 04:20:00.5 [SBP01   ] Fix32.thisnode.name14.A_CV set to Selenio by SC4BP01::BATCH RECIPE                                 
14/09/2004 04:20:00.5 [SBP01   ] Fix32.thisnode.name15.A_CV set to Cobalto by SC4BP01::BATCH RECIPE                                 
14/09/2004 04:20:00.5 [SBP01   ] Fix32.thisnode.name16.A_CV set to Ferro by SC4BP01::BATCH RECIPE                                   
14/09/2004 04:20:00.5 [SBP01   ] Fix32.thisnode.name20.A_CV set to Caco by SC4BP01::BATCH RECIPE                                    
14/09/2004 04:20:00.5 [SBP01   ] Fix32.thisnode.name50.A_CV set to  gua by SC4BP01::BATCH RECIPE                                    
14/09/2004 04:20:00.5 [SBP01   ] Fix32.thisnode.name51.A_CV set to Vapor by SC4BP01::BATCH RECIPE                                   
14/09/2004 04:20:00.5 [SBP01   ] Fix32.thisnode.name201.A_CV set to Mst 1 seco by SC4BP01::BATCH RECIPE                             
14/09/2004 04:20:00.5 [SBP01   ] Fix32.thisnode.name202.A_CV set to Mst 2 seco by SC4BP01::BATCH RECIPE                             
14/09/2004 04:20:00.6 [SBP01   ] Fix32.thisnode.name203.A_CV set to Mst 1  mido by SC4BP01::BATCH RECIPE                            
14/09/2004 04:20:00.6 [SBP01   ] Fix32.thisnode.name204.A_CV set to Mst 2  mido by SC4BP01::BATCH RECIPE                            
14/09/2004 04:23:59.8 [SBP01   ] Fix32.thisnode.name1.A_CV set to Areia 1 by SC4BP01::BATCH RECIPE                                  
14/09/2004 04:23:59.8 [SBP01   ] Fix32.thisnode.name2.A_CV set to Areia 2 by SC4BP01::BATCH RECIPE                                  
14/09/2004 04:23:59.9 [SBP01   ] Fix32.thisnode.name3.A_CV set to Dolomita by SC4BP01::BATCH RECIPE                                 
14/09/2004 04:23:59.9 [SBP01   ] Fix32.thisnode.name4.A_CV set to Calcario by SC4BP01::BATCH RECIPE                                 
14/09/2004 04:23:59.9 [SBP01   ] Fix32.thisnode.name5.A_CV set to Reserva by SC4BP01::BATCH RECIPE                                  
14/09/2004 04:23:59.9 [SBP01   ] Fix32.thisnode.name6.A_CV set to Barrilha by SC4BP01::BATCH RECIPE                                 
14/09/2004 04:23:59.9 [SBP01   ] Fix32.thisnode.name7.A_CV set to Feldspato by SC4BP01::BATCH RECIPE                                
14/09/2004 04:23:59.9 [SBP01   ] Fix32.thisnode.name8.A_CV set to Sulfato by SC4BP01::BATCH RECIPE                                  
14/09/2004 04:24:00.0 [SBP01   ] Fix32.thisnode.name9.A_CV set to Po de EP by SC4BP01::BATCH RECIPE                                 
14/09/2004 04:24:00.0 [SBP01   ] Fix32.thisnode.name10.A_CV set to Grafite by SC4BP01::BATCH RECIPE                                 
14/09/2004 04:24:00.0 [SBP01   ] Fix32.thisnode.name11.A_CV set to Ferro by SC4BP01::BATCH RECIPE                                   
14/09/2004 04:24:00.1 [SBP01   ] Fix32.thisnode.name12.A_CV set to Nitrato by SC4BP01::BATCH RECIPE                                 
14/09/2004 04:24:00.1 [SBP01   ] Fix32.thisnode.name14.A_CV set to Selenio by SC4BP01::BATCH RECIPE                                 
14/09/2004 04:24:00.1 [SBP01   ] Fix32.thisnode.name15.A_CV set to Cobalto by SC4BP01::BATCH RECIPE                                 
14/09/2004 04:24:00.2 [SBP01   ] Fix32.thisnode.name16.A_CV set to Ferro by SC4BP01::BATCH RECIPE                                   
14/09/2004 04:24:00.2 [SBP01   ] Fix32.thisnode.name20.A_CV set to Caco by SC4BP01::BATCH RECIPE                                    
14/09/2004 04:24:00.2 [SBP01   ] Fix32.thisnode.name50.A_CV set to  gua by SC4BP01::BATCH RECIPE                                    
14/09/2004 04:24:00.2 [SBP01   ] Fix32.thisnode.name51.A_CV set to Vapor by SC4BP01::BATCH RECIPE                                   
14/09/2004 04:24:00.2 [SBP01   ] Fix32.thisnode.name201.A_CV set to Mst 1 seco by SC4BP01::BATCH RECIPE                             
14/09/2004 04:24:00.2 [SBP01   ] Fix32.thisnode.name202.A_CV set to Mst 2 seco by SC4BP01::BATCH RECIPE                             
14/09/2004 04:24:00.3 [SBP01   ] Fix32.thisnode.name203.A_CV set to Mst 1  mido by SC4BP01::BATCH RECIPE                            
14/09/2004 04:24:00.3 [SBP01   ] Fix32.thisnode.name204.A_CV set to Mst 2  mido by SC4BP01::BATCH RECIPE                            
14/09/2004 04:27:59.8 [SBP01   ] Fix32.thisnode.name1.A_CV set to Areia 1 by SC4BP01::BATCH RECIPE                                  
14/09/2004 04:27:59.8 [SBP01   ] Fix32.thisnode.name2.A_CV set to Areia 2 by SC4BP01::BATCH RECIPE                                  
14/09/2004 04:27:59.9 [SBP01   ] Fix32.thisnode.name3.A_CV set to Dolomita by SC4BP01::BATCH RECIPE                                 
14/09/2004 04:27:59.9 [SBP01   ] Fix32.thisnode.name4.A_CV set to Calcario by SC4BP01::BATCH RECIPE                                 
14/09/2004 04:27:59.9 [SBP01   ] Fix32.thisnode.name5.A_CV set to Reserva by SC4BP01::BATCH RECIPE                                  
14/09/2004 04:27:59.9 [SBP01   ] Fix32.thisnode.name6.A_CV set to Barrilha by SC4BP01::BATCH RECIPE                                 
14/09/2004 04:27:59.9 [SBP01   ] Fix32.thisnode.name7.A_CV set to Feldspato by SC4BP01::BATCH RECIPE                                
14/09/2004 04:27:59.9 [SBP01   ] Fix32.thisnode.name8.A_CV set to Sulfato by SC4BP01::BATCH RECIPE                                  
14/09/2004 04:27:59.9 [SBP01   ] Fix32.thisnode.name9.A_CV set to Po de EP by SC4BP01::BATCH RECIPE                                 
14/09/2004 04:27:59.9 [SBP01   ] Fix32.thisnode.name10.A_CV set to Grafite by SC4BP01::BATCH RECIPE                                 
14/09/2004 04:28:00.0 [SBP01   ] Fix32.thisnode.name11.A_CV set to Ferro by SC4BP01::BATCH RECIPE                                   
14/09/2004 04:28:00.0 [SBP01   ] Fix32.thisnode.name12.A_CV set to Nitrato by SC4BP01::BATCH RECIPE                                 
14/09/2004 04:28:00.0 [SBP01   ] Fix32.thisnode.name14.A_CV set to Selenio by SC4BP01::BATCH RECIPE                                 
14/09/2004 04:28:00.0 [SBP01   ] Fix32.thisnode.name15.A_CV set to Cobalto by SC4BP01::BATCH RECIPE                                 
14/09/2004 04:28:00.0 [SBP01   ] Fix32.thisnode.name16.A_CV set to Ferro by SC4BP01::BATCH RECIPE                                   
14/09/2004 04:28:00.0 [SBP01   ] Fix32.thisnode.name20.A_CV set to Caco by SC4BP01::BATCH RECIPE                                    
14/09/2004 04:28:00.0 [SBP01   ] Fix32.thisnode.name50.A_CV set to  gua by SC4BP01::BATCH RECIPE                                    
14/09/2004 04:28:00.1 [SBP01   ] Fix32.thisnode.name51.A_CV set to Vapor by SC4BP01::BATCH RECIPE                                   
14/09/2004 04:28:00.1 [SBP01   ] Fix32.thisnode.name201.A_CV set to Mst 1 seco by SC4BP01::BATCH RECIPE                             
14/09/2004 04:28:00.1 [SBP01   ] Fix32.thisnode.name202.A_CV set to Mst 2 seco by SC4BP01::BATCH RECIPE                             
14/09/2004 04:28:00.1 [SBP01   ] Fix32.thisnode.name203.A_CV set to Mst 1  mido by SC4BP01::BATCH RECIPE                            
14/09/2004 04:28:00.1 [SBP01   ] Fix32.thisnode.name204.A_CV set to Mst 2  mido by SC4BP01::BATCH RECIPE                            
14/09/2004 04:31:59.8 [SBP01   ] Fix32.thisnode.name1.A_CV set to Areia 1 by SC4BP01::BATCH RECIPE                                  
14/09/2004 04:31:59.8 [SBP01   ] Fix32.thisnode.name2.A_CV set to Areia 2 by SC4BP01::BATCH RECIPE                                  
14/09/2004 04:31:59.9 [SBP01   ] Fix32.thisnode.name3.A_CV set to Dolomita by SC4BP01::BATCH RECIPE                                 
14/09/2004 04:31:59.9 [SBP01   ] Fix32.thisnode.name4.A_CV set to Calcario by SC4BP01::BATCH RECIPE                                 
14/09/2004 04:31:59.9 [SBP01   ] Fix32.thisnode.name5.A_CV set to Reserva by SC4BP01::BATCH RECIPE                                  
14/09/2004 04:31:59.9 [SBP01   ] Fix32.thisnode.name6.A_CV set to Barrilha by SC4BP01::BATCH RECIPE                                 
14/09/2004 04:31:59.9 [SBP01   ] Fix32.thisnode.name7.A_CV set to Feldspato by SC4BP01::BATCH RECIPE                                
14/09/2004 04:31:59.9 [SBP01   ] Fix32.thisnode.name8.A_CV set to Sulfato by SC4BP01::BATCH RECIPE                                  
14/09/2004 04:31:59.9 [SBP01   ] Fix32.thisnode.name9.A_CV set to Po de EP by SC4BP01::BATCH RECIPE                                 
14/09/2004 04:31:59.9 [SBP01   ] Fix32.thisnode.name10.A_CV set to Grafite by SC4BP01::BATCH RECIPE                                 
14/09/2004 04:32:00.0 [SBP01   ] Fix32.thisnode.name11.A_CV set to Ferro by SC4BP01::BATCH RECIPE                                   
14/09/2004 04:32:00.0 [SBP01   ] Fix32.thisnode.name12.A_CV set to Nitrato by SC4BP01::BATCH RECIPE                                 
14/09/2004 04:32:00.0 [SBP01   ] Fix32.thisnode.name14.A_CV set to Selenio by SC4BP01::BATCH RECIPE                                 
14/09/2004 04:32:00.0 [SBP01   ] Fix32.thisnode.name15.A_CV set to Cobalto by SC4BP01::BATCH RECIPE                                 
14/09/2004 04:32:00.0 [SBP01   ] Fix32.thisnode.name16.A_CV set to Ferro by SC4BP01::BATCH RECIPE                                   
14/09/2004 04:32:00.0 [SBP01   ] Fix32.thisnode.name20.A_CV set to Caco by SC4BP01::BATCH RECIPE                                    
14/09/2004 04:32:00.1 [SBP01   ] Fix32.thisnode.name50.A_CV set to  gua by SC4BP01::BATCH RECIPE                                    
14/09/2004 04:32:00.1 [SBP01   ] Fix32.thisnode.name51.A_CV set to Vapor by SC4BP01::BATCH RECIPE                                   
14/09/2004 04:32:00.1 [SBP01   ] Fix32.thisnode.name201.A_CV set to Mst 1 seco by SC4BP01::BATCH RECIPE                             
14/09/2004 04:32:00.1 [SBP01   ] Fix32.thisnode.name202.A_CV set to Mst 2 seco by SC4BP01::BATCH RECIPE                             
14/09/2004 04:32:00.1 [SBP01   ] Fix32.thisnode.name203.A_CV set to Mst 1  mido by SC4BP01::BATCH RECIPE                            
14/09/2004 04:32:00.1 [SBP01   ] Fix32.thisnode.name204.A_CV set to Mst 2  mido by SC4BP01::BATCH RECIPE                            
14/09/2004 04:35:32.1 [SCE07   ] Fix32.SCE07.EDGE_STRESS_UNITS.F_CV set to  0 by SC4CE07::COLD END OPERATOR                         
14/09/2004 04:35:59.8 [SBP01   ] Fix32.thisnode.name1.A_CV set to Areia 1 by SC4BP01::BATCH RECIPE                                  
14/09/2004 04:35:59.8 [SBP01   ] Fix32.thisnode.name2.A_CV set to Areia 2 by SC4BP01::BATCH RECIPE                                  
14/09/2004 04:35:59.9 [SBP01   ] Fix32.thisnode.name3.A_CV set to Dolomita by SC4BP01::BATCH RECIPE                                 
14/09/2004 04:35:59.9 [SBP01   ] Fix32.thisnode.name4.A_CV set to Calcario by SC4BP01::BATCH RECIPE                                 
14/09/2004 04:35:59.9 [SBP01   ] Fix32.thisnode.name5.A_CV set to Reserva by SC4BP01::BATCH RECIPE                                  
14/09/2004 04:35:59.9 [SBP01   ] Fix32.thisnode.name6.A_CV set to Barrilha by SC4BP01::BATCH RECIPE                                 
14/09/2004 04:35:59.9 [SBP01   ] Fix32.thisnode.name7.A_CV set to Feldspato by SC4BP01::BATCH RECIPE                                
14/09/2004 04:35:59.9 [SBP01   ] Fix32.thisnode.name8.A_CV set to Sulfato by SC4BP01::BATCH RECIPE                                  
14/09/2004 04:36:00.0 [SBP01   ] Fix32.thisnode.name9.A_CV set to Po de EP by SC4BP01::BATCH RECIPE                                 
14/09/2004 04:36:00.0 [SBP01   ] Fix32.thisnode.name10.A_CV set to Grafite by SC4BP01::BATCH RECIPE                                 
14/09/2004 04:36:00.0 [SBP01   ] Fix32.thisnode.name11.A_CV set to Ferro by SC4BP01::BATCH RECIPE                                   
14/09/2004 04:36:00.0 [SBP01   ] Fix32.thisnode.name12.A_CV set to Nitrato by SC4BP01::BATCH RECIPE                                 
14/09/2004 04:36:00.0 [SBP01   ] Fix32.thisnode.name14.A_CV set to Selenio by SC4BP01::BATCH RECIPE                                 
14/09/2004 04:36:00.0 [SBP01   ] Fix32.thisnode.name15.A_CV set to Cobalto by SC4BP01::BATCH RECIPE                                 
14/09/2004 04:36:00.0 [SBP01   ] Fix32.thisnode.name16.A_CV set to Ferro by SC4BP01::BATCH RECIPE                                   
14/09/2004 04:36:00.1 [SBP01   ] Fix32.thisnode.name20.A_CV set to Caco by SC4BP01::BATCH RECIPE                                    
14/09/2004 04:36:00.1 [SBP01   ] Fix32.thisnode.name50.A_CV set to  gua by SC4BP01::BATCH RECIPE                                    
14/09/2004 04:36:00.1 [SBP01   ] Fix32.thisnode.name51.A_CV set to Vapor by SC4BP01::BATCH RECIPE                                   
14/09/2004 04:36:00.1 [SBP01   ] Fix32.thisnode.name201.A_CV set to Mst 1 seco by SC4BP01::BATCH RECIPE                             
14/09/2004 04:36:00.1 [SBP01   ] Fix32.thisnode.name202.A_CV set to Mst 2 seco by SC4BP01::BATCH RECIPE                             
14/09/2004 04:36:00.1 [SBP01   ] Fix32.thisnode.name203.A_CV set to Mst 1  mido by SC4BP01::BATCH RECIPE                            
14/09/2004 04:36:00.1 [SBP01   ] Fix32.thisnode.name204.A_CV set to Mst 2  mido by SC4BP01::BATCH RECIPE                            
14/09/2004 04:39:49.9 [SCE01   ] CE_M601_ANM_SAFETY_AREA        CFN             CLOSE      CE M601 SAFETY AREA                     
14/09/2004 04:39:49.9 [SCE01   ] CE_M601_ANM_SAFETY_AREA        CFN             CLOSE      CE M601 SAFETY AREA                     
14/09/2004 04:40:00.3 [SBP01   ] Fix32.thisnode.name1.A_CV set to Areia 1 by SC4BP01::BATCH RECIPE                                  
14/09/2004 04:40:02.9 [SCE01   ] CE_M601_ANM_SAFETY_AREA        OK               OPEN      CE M601 SAFETY AREA                     
14/09/2004 04:40:03.9 [SCE01   ] CE_M601_ANM_SAFETY_AREA        OK               OPEN      CE M601 SAFETY AREA                     
14/09/2004 04:40:00.3 [SBP01   ] Fix32.thisnode.name2.A_CV set to Areia 2 by SC4BP01::BATCH RECIPE                                  
14/09/2004 04:40:00.3 [SBP01   ] Fix32.thisnode.name3.A_CV set to Dolomita by SC4BP01::BATCH RECIPE                                 
14/09/2004 04:40:00.3 [SBP01   ] Fix32.thisnode.name4.A_CV set to Calcario by SC4BP01::BATCH RECIPE                                 
14/09/2004 04:40:00.3 [SBP01   ] Fix32.thisnode.name5.A_CV set to Reserva by SC4BP01::BATCH RECIPE                                  
14/09/2004 04:40:00.3 [SBP01   ] Fix32.thisnode.name6.A_CV set to Barrilha by SC4BP01::BATCH RECIPE                                 
14/09/2004 04:40:00.3 [SBP01   ] Fix32.thisnode.name7.A_CV set to Feldspato by SC4BP01::BATCH RECIPE                                
14/09/2004 04:40:00.4 [SBP01   ] Fix32.thisnode.name8.A_CV set to Sulfato by SC4BP01::BATCH RECIPE                                  
14/09/2004 04:40:00.4 [SBP01   ] Fix32.thisnode.name9.A_CV set to Po de EP by SC4BP01::BATCH RECIPE                                 
14/09/2004 04:40:00.4 [SBP01   ] Fix32.thisnode.name10.A_CV set to Grafite by SC4BP01::BATCH RECIPE                                 
14/09/2004 04:40:00.4 [SBP01   ] Fix32.thisnode.name11.A_CV set to Ferro by SC4BP01::BATCH RECIPE                                   
14/09/2004 04:40:00.4 [SBP01   ] Fix32.thisnode.name12.A_CV set to Nitrato by SC4BP01::BATCH RECIPE                                 
14/09/2004 04:40:00.4 [SBP01   ] Fix32.thisnode.name14.A_CV set to Selenio by SC4BP01::BATCH RECIPE                                 
14/09/2004 04:40:00.4 [SBP01   ] Fix32.thisnode.name15.A_CV set to Cobalto by SC4BP01::BATCH RECIPE                                 
14/09/2004 04:40:00.4 [SBP01   ] Fix32.thisnode.name16.A_CV set to Ferro by SC4BP01::BATCH RECIPE                                   
14/09/2004 04:40:00.5 [SBP01   ] Fix32.thisnode.name20.A_CV set to Caco by SC4BP01::BATCH RECIPE                                    
14/09/2004 04:40:00.5 [SBP01   ] Fix32.thisnode.name50.A_CV set to  gua by SC4BP01::BATCH RECIPE                                    
14/09/2004 04:40:00.5 [SBP01   ] Fix32.thisnode.name51.A_CV set to Vapor by SC4BP01::BATCH RECIPE                                   
14/09/2004 04:40:00.5 [SBP01   ] Fix32.thisnode.name201.A_CV set to Mst 1 seco by SC4BP01::BATCH RECIPE                             
14/09/2004 04:40:00.6 [SBP01   ] Fix32.thisnode.name202.A_CV set to Mst 2 seco by SC4BP01::BATCH RECIPE                             
14/09/2004 04:40:00.6 [SBP01   ] Fix32.thisnode.name203.A_CV set to Mst 1  mido by SC4BP01::BATCH RECIPE                            
14/09/2004 04:40:00.6 [SBP01   ] Fix32.thisnode.name204.A_CV set to Mst 2  mido by SC4BP01::BATCH RECIPE                            
14/09/2004 04:43:59.8 [SBP01   ] Fix32.thisnode.name1.A_CV set to Areia 1 by SC4BP01::BATCH RECIPE                                  
14/09/2004 04:43:59.8 [SBP01   ] Fix32.thisnode.name2.A_CV set to Areia 2 by SC4BP01::BATCH RECIPE                                  
14/09/2004 04:43:59.8 [SBP01   ] Fix32.thisnode.name3.A_CV set to Dolomita by SC4BP01::BATCH RECIPE                                 
14/09/2004 04:43:59.9 [SBP01   ] Fix32.thisnode.name4.A_CV set to Calcario by SC4BP01::BATCH RECIPE                                 
14/09/2004 04:43:59.9 [SBP01   ] Fix32.thisnode.name5.A_CV set to Reserva by SC4BP01::BATCH RECIPE                                  
14/09/2004 04:43:59.9 [SBP01   ] Fix32.thisnode.name6.A_CV set to Barrilha by SC4BP01::BATCH RECIPE                                 
14/09/2004 04:43:59.9 [SBP01   ] Fix32.thisnode.name7.A_CV set to Feldspato by SC4BP01::BATCH RECIPE                                
14/09/2004 04:43:59.9 [SBP01   ] Fix32.thisnode.name8.A_CV set to Sulfato by SC4BP01::BATCH RECIPE                                  
14/09/2004 04:43:59.9 [SBP01   ] Fix32.thisnode.name9.A_CV set to Po de EP by SC4BP01::BATCH RECIPE                                 
14/09/2004 04:44:00.0 [SBP01   ] Fix32.thisnode.name10.A_CV set to Grafite by SC4BP01::BATCH RECIPE                                 
14/09/2004 04:44:00.0 [SBP01   ] Fix32.thisnode.name11.A_CV set to Ferro by SC4BP01::BATCH RECIPE                                   
14/09/2004 04:44:00.0 [SBP01   ] Fix32.thisnode.name12.A_CV set to Nitrato by SC4BP01::BATCH RECIPE                                 
14/09/2004 04:44:00.0 [SBP01   ] Fix32.thisnode.name14.A_CV set to Selenio by SC4BP01::BATCH RECIPE                                 
14/09/2004 04:44:00.0 [SBP01   ] Fix32.thisnode.name15.A_CV set to Cobalto by SC4BP01::BATCH RECIPE                                 
14/09/2004 04:44:00.0 [SBP01   ] Fix32.thisnode.name16.A_CV set to Ferro by SC4BP01::BATCH RECIPE                                   
14/09/2004 04:44:00.1 [SBP01   ] Fix32.thisnode.name20.A_CV set to Caco by SC4BP01::BATCH RECIPE                                    
14/09/2004 04:44:00.1 [SBP01   ] Fix32.thisnode.name50.A_CV set to  gua by SC4BP01::BATCH RECIPE                                    
14/09/2004 04:44:00.1 [SBP01   ] Fix32.thisnode.name51.A_CV set to Vapor by SC4BP01::BATCH RECIPE                                   
14/09/2004 04:44:00.1 [SBP01   ] Fix32.thisnode.name201.A_CV set to Mst 1 seco by SC4BP01::BATCH RECIPE                             
14/09/2004 04:44:00.2 [SBP01   ] Fix32.thisnode.name202.A_CV set to Mst 2 seco by SC4BP01::BATCH RECIPE                             
14/09/2004 04:44:00.2 [SBP01   ] Fix32.thisnode.name203.A_CV set to Mst 1  mido by SC4BP01::BATCH RECIPE                            
14/09/2004 04:44:00.2 [SBP01   ] Fix32.thisnode.name204.A_CV set to Mst 2  mido by SC4BP01::BATCH RECIPE                            
14/09/2004 04:47:59.8 [SBP01   ] Fix32.thisnode.name1.A_CV set to Areia 1 by SC4BP01::BATCH RECIPE                                  
14/09/2004 04:47:59.8 [SBP01   ] Fix32.thisnode.name2.A_CV set to Areia 2 by SC4BP01::BATCH RECIPE                                  
14/09/2004 04:47:59.8 [SBP01   ] Fix32.thisnode.name3.A_CV set to Dolomita by SC4BP01::BATCH RECIPE                                 
14/09/2004 04:47:59.8 [SBP01   ] Fix32.thisnode.name4.A_CV set to Calcario by SC4BP01::BATCH RECIPE                                 
14/09/2004 04:47:59.9 [SBP01   ] Fix32.thisnode.name5.A_CV set to Reserva by SC4BP01::BATCH RECIPE                                  
14/09/2004 04:47:59.9 [SBP01   ] Fix32.thisnode.name6.A_CV set to Barrilha by SC4BP01::BATCH RECIPE                                 
14/09/2004 04:47:59.9 [SBP01   ] Fix32.thisnode.name7.A_CV set to Feldspato by SC4BP01::BATCH RECIPE                                
14/09/2004 04:47:59.9 [SBP01   ] Fix32.thisnode.name8.A_CV set to Sulfato by SC4BP01::BATCH RECIPE                                  
14/09/2004 04:47:59.9 [SBP01   ] Fix32.thisnode.name9.A_CV set to Po de EP by SC4BP01::BATCH RECIPE                                 
14/09/2004 04:47:59.9 [SBP01   ] Fix32.thisnode.name10.A_CV set to Grafite by SC4BP01::BATCH RECIPE                                 
14/09/2004 04:48:00.0 [SBP01   ] Fix32.thisnode.name11.A_CV set to Ferro by SC4BP01::BATCH RECIPE                                   
14/09/2004 04:48:00.0 [SBP01   ] Fix32.thisnode.name12.A_CV set to Nitrato by SC4BP01::BATCH RECIPE                                 
14/09/2004 04:48:00.0 [SBP01   ] Fix32.thisnode.name14.A_CV set to Selenio by SC4BP01::BATCH RECIPE                                 
14/09/2004 04:48:00.0 [SBP01   ] Fix32.thisnode.name15.A_CV set to Cobalto by SC4BP01::BATCH RECIPE                                 
14/09/2004 04:48:00.0 [SBP01   ] Fix32.thisnode.name16.A_CV set to Ferro by SC4BP01::BATCH RECIPE                                   
14/09/2004 04:48:00.0 [SBP01   ] Fix32.thisnode.name20.A_CV set to Caco by SC4BP01::BATCH RECIPE                                    
14/09/2004 04:48:00.0 [SBP01   ] Fix32.thisnode.name50.A_CV set to  gua by SC4BP01::BATCH RECIPE                                    
14/09/2004 04:48:00.0 [SBP01   ] Fix32.thisnode.name51.A_CV set to Vapor by SC4BP01::BATCH RECIPE                                   
14/09/2004 04:48:00.1 [SBP01   ] Fix32.thisnode.name201.A_CV set to Mst 1 seco by SC4BP01::BATCH RECIPE                             
14/09/2004 04:48:00.1 [SBP01   ] Fix32.thisnode.name202.A_CV set to Mst 2 seco by SC4BP01::BATCH RECIPE                             
14/09/2004 04:48:00.1 [SBP01   ] Fix32.thisnode.name203.A_CV set to Mst 1  mido by SC4BP01::BATCH RECIPE                            
14/09/2004 04:48:00.1 [SBP01   ] Fix32.thisnode.name204.A_CV set to Mst 2  mido by SC4BP01::BATCH RECIPE                            
14/09/2004 04:51:59.8 [SBP01   ] Fix32.thisnode.name1.A_CV set to Areia 1 by SC4BP01::BATCH RECIPE                                  
14/09/2004 04:51:59.8 [SBP01   ] Fix32.thisnode.name2.A_CV set to Areia 2 by SC4BP01::BATCH RECIPE                                  
14/09/2004 04:51:59.8 [SBP01   ] Fix32.thisnode.name3.A_CV set to Dolomita by SC4BP01::BATCH RECIPE                                 
14/09/2004 04:51:59.8 [SBP01   ] Fix32.thisnode.name4.A_CV set to Calcario by SC4BP01::BATCH RECIPE                                 
14/09/2004 04:51:59.9 [SBP01   ] Fix32.thisnode.name5.A_CV set to Reserva by SC4BP01::BATCH RECIPE                                  
14/09/2004 04:51:59.9 [SBP01   ] Fix32.thisnode.name6.A_CV set to Barrilha by SC4BP01::BATCH RECIPE                                 
14/09/2004 04:51:59.9 [SBP01   ] Fix32.thisnode.name7.A_CV set to Feldspato by SC4BP01::BATCH RECIPE                                
14/09/2004 04:51:59.9 [SBP01   ] Fix32.thisnode.name8.A_CV set to Sulfato by SC4BP01::BATCH RECIPE                                  
14/09/2004 04:51:59.9 [SBP01   ] Fix32.thisnode.name9.A_CV set to Po de EP by SC4BP01::BATCH RECIPE                                 
14/09/2004 04:51:59.9 [SBP01   ] Fix32.thisnode.name10.A_CV set to Grafite by SC4BP01::BATCH RECIPE                                 
14/09/2004 04:52:00.0 [SBP01   ] Fix32.thisnode.name11.A_CV set to Ferro by SC4BP01::BATCH RECIPE                                   
14/09/2004 04:52:00.0 [SBP01   ] Fix32.thisnode.name12.A_CV set to Nitrato by SC4BP01::BATCH RECIPE                                 
14/09/2004 04:52:00.0 [SBP01   ] Fix32.thisnode.name14.A_CV set to Selenio by SC4BP01::BATCH RECIPE                                 
14/09/2004 04:52:00.1 [SBP01   ] Fix32.thisnode.name15.A_CV set to Cobalto by SC4BP01::BATCH RECIPE                                 
14/09/2004 04:52:00.1 [SBP01   ] Fix32.thisnode.name16.A_CV set to Ferro by SC4BP01::BATCH RECIPE                                   
14/09/2004 04:52:00.1 [SBP01   ] Fix32.thisnode.name20.A_CV set to Caco by SC4BP01::BATCH RECIPE                                    
14/09/2004 04:52:00.1 [SBP01   ] Fix32.thisnode.name50.A_CV set to  gua by SC4BP01::BATCH RECIPE                                    
14/09/2004 04:52:00.2 [SBP01   ] Fix32.thisnode.name51.A_CV set to Vapor by SC4BP01::BATCH RECIPE                                   
14/09/2004 04:52:00.2 [SBP01   ] Fix32.thisnode.name201.A_CV set to Mst 1 seco by SC4BP01::BATCH RECIPE                             
14/09/2004 04:52:00.2 [SBP01   ] Fix32.thisnode.name202.A_CV set to Mst 2 seco by SC4BP01::BATCH RECIPE                             
14/09/2004 04:52:00.2 [SBP01   ] Fix32.thisnode.name203.A_CV set to Mst 1  mido by SC4BP01::BATCH RECIPE                            
14/09/2004 04:52:00.2 [SBP01   ] Fix32.thisnode.name204.A_CV set to Mst 2  mido by SC4BP01::BATCH RECIPE                            
14/09/2004 04:55:59.8 [SBP01   ] Fix32.thisnode.name1.A_CV set to Areia 1 by SC4BP01::BATCH RECIPE                                  
14/09/2004 04:55:59.8 [SBP01   ] Fix32.thisnode.name2.A_CV set to Areia 2 by SC4BP01::BATCH RECIPE                                  
14/09/2004 04:55:59.8 [SBP01   ] Fix32.thisnode.name3.A_CV set to Dolomita by SC4BP01::BATCH RECIPE                                 
14/09/2004 04:55:59.8 [SBP01   ] Fix32.thisnode.name4.A_CV set to Calcario by SC4BP01::BATCH RECIPE                                 
14/09/2004 04:55:59.9 [SBP01   ] Fix32.thisnode.name5.A_CV set to Reserva by SC4BP01::BATCH RECIPE                                  
14/09/2004 04:55:59.9 [SBP01   ] Fix32.thisnode.name6.A_CV set to Barrilha by SC4BP01::BATCH RECIPE                                 
14/09/2004 04:55:59.9 [SBP01   ] Fix32.thisnode.name7.A_CV set to Feldspato by SC4BP01::BATCH RECIPE                                
14/09/2004 04:55:59.9 [SBP01   ] Fix32.thisnode.name8.A_CV set to Sulfato by SC4BP01::BATCH RECIPE                                  
14/09/2004 04:55:59.9 [SBP01   ] Fix32.thisnode.name9.A_CV set to Po de EP by SC4BP01::BATCH RECIPE                                 
14/09/2004 04:55:59.9 [SBP01   ] Fix32.thisnode.name10.A_CV set to Grafite by SC4BP01::BATCH RECIPE                                 
14/09/2004 04:55:59.9 [SBP01   ] Fix32.thisnode.name11.A_CV set to Ferro by SC4BP01::BATCH RECIPE                                   
14/09/2004 04:56:00.0 [SBP01   ] Fix32.thisnode.name12.A_CV set to Nitrato by SC4BP01::BATCH RECIPE                                 
14/09/2004 04:56:00.0 [SBP01   ] Fix32.thisnode.name14.A_CV set to Selenio by SC4BP01::BATCH RECIPE                                 
14/09/2004 04:56:00.0 [SBP01   ] Fix32.thisnode.name15.A_CV set to Cobalto by SC4BP01::BATCH RECIPE                                 
14/09/2004 04:56:00.0 [SBP01   ] Fix32.thisnode.name16.A_CV set to Ferro by SC4BP01::BATCH RECIPE                                   
14/09/2004 04:56:00.0 [SBP01   ] Fix32.thisnode.name20.A_CV set to Caco by SC4BP01::BATCH RECIPE                                    
14/09/2004 04:56:00.0 [SBP01   ] Fix32.thisnode.name50.A_CV set to  gua by SC4BP01::BATCH RECIPE                                    
14/09/2004 04:56:00.0 [SBP01   ] Fix32.thisnode.name51.A_CV set to Vapor by SC4BP01::BATCH RECIPE                                   
14/09/2004 04:56:00.0 [SBP01   ] Fix32.thisnode.name201.A_CV set to Mst 1 seco by SC4BP01::BATCH RECIPE                             
14/09/2004 04:56:00.0 [SBP01   ] Fix32.thisnode.name202.A_CV set to Mst 2 seco by SC4BP01::BATCH RECIPE                             
14/09/2004 04:56:00.1 [SBP01   ] Fix32.thisnode.name203.A_CV set to Mst 1  mido by SC4BP01::BATCH RECIPE                            
14/09/2004 04:56:00.1 [SBP01   ] Fix32.thisnode.name204.A_CV set to Mst 2  mido by SC4BP01::BATCH RECIPE                            
14/09/2004 04:56:43.2 [SCE01   ] CE_M601_ANM_SAFETY_AREA ALARM is acknowledged by WC4CE01::COLD END OPERATOR                        
14/09/2004 04:56:43.4 [SCE01   ] CE_M601_ANM_SAFETY_AREA ALARM is acknowledged by WC4CE01::COLD END OPERATOR                        
14/09/2004 05:00:00.3 [SBP01   ] Fix32.thisnode.name1.A_CV set to Areia 1 by SC4BP01::BATCH RECIPE                                  
14/09/2004 05:00:00.3 [SBP01   ] Fix32.thisnode.name2.A_CV set to Areia 2 by SC4BP01::BATCH RECIPE                                  
14/09/2004 05:00:00.3 [SBP01   ] Fix32.thisnode.name3.A_CV set to Dolomita by SC4BP01::BATCH RECIPE                                 
14/09/2004 05:00:00.3 [SBP01   ] Fix32.thisnode.name4.A_CV set to Calcario by SC4BP01::BATCH RECIPE                                 
14/09/2004 05:00:00.4 [SBP01   ] Fix32.thisnode.name5.A_CV set to Reserva by SC4BP01::BATCH RECIPE                                  
14/09/2004 05:00:00.4 [SBP01   ] Fix32.thisnode.name6.A_CV set to Barrilha by SC4BP01::BATCH RECIPE                                 
14/09/2004 05:00:00.4 [SBP01   ] Fix32.thisnode.name7.A_CV set to Feldspato by SC4BP01::BATCH RECIPE                                
14/09/2004 05:00:00.4 [SBP01   ] Fix32.thisnode.name8.A_CV set to Sulfato by SC4BP01::BATCH RECIPE                                  
14/09/2004 05:00:00.4 [SBP01   ] Fix32.thisnode.name9.A_CV set to Po de EP by SC4BP01::BATCH RECIPE                                 
14/09/2004 05:00:00.5 [SBP01   ] Fix32.thisnode.name10.A_CV set to Grafite by SC4BP01::BATCH RECIPE                                 
14/09/2004 05:00:00.5 [SBP01   ] Fix32.thisnode.name11.A_CV set to Ferro by SC4BP01::BATCH RECIPE                                   
14/09/2004 05:00:00.5 [SBP01   ] Fix32.thisnode.name12.A_CV set to Nitrato by SC4BP01::BATCH RECIPE                                 
14/09/2004 05:00:00.5 [SBP01   ] Fix32.thisnode.name14.A_CV set to Selenio by SC4BP01::BATCH RECIPE                                 
14/09/2004 05:00:00.5 [SBP01   ] Fix32.thisnode.name15.A_CV set to Cobalto by SC4BP01::BATCH RECIPE                                 
14/09/2004 05:00:00.5 [SBP01   ] Fix32.thisnode.name16.A_CV set to Ferro by SC4BP01::BATCH RECIPE                                   
14/09/2004 05:00:00.5 [SBP01   ] Fix32.thisnode.name20.A_CV set to Caco by SC4BP01::BATCH RECIPE                                    
14/09/2004 05:00:00.6 [SBP01   ] Fix32.thisnode.name50.A_CV set to  gua by SC4BP01::BATCH RECIPE                                    
14/09/2004 05:00:00.6 [SBP01   ] Fix32.thisnode.name51.A_CV set to Vapor by SC4BP01::BATCH RECIPE                                   
14/09/2004 05:00:00.6 [SBP01   ] Fix32.thisnode.name201.A_CV set to Mst 1 seco by SC4BP01::BATCH RECIPE                             
14/09/2004 05:00:00.6 [SBP01   ] Fix32.thisnode.name202.A_CV set to Mst 2 seco by SC4BP01::BATCH RECIPE                             
14/09/2004 05:00:00.6 [SBP01   ] Fix32.thisnode.name203.A_CV set to Mst 1  mido by SC4BP01::BATCH RECIPE                            
14/09/2004 05:00:00.6 [SBP01   ] Fix32.thisnode.name204.A_CV set to Mst 2  mido by SC4BP01::BATCH RECIPE                            
14/09/2004 05:00:36.9 [SCE01   ] CE_M301_AN_ERROR_LENGTH_DATA   CFN             CLOSE      CE M301 ERROR LENGTH DATA               
14/09/2004 05:00:37.9 [SCE01   ] CE_M301_AN_ERROR_LENGTH_DATA   CFN             CLOSE      CE M301 ERROR LENGTH DATA               
14/09/2004 05:00:40.9 [SCE01   ] CE_M301_ANM_CRTL_SNAP          CFN             CLOSE      CE M301 CONTROL SNAP                    
14/09/2004 05:00:41.9 [SCE01   ] CE_M301_ANM_CRTL_SNAP          CFN             CLOSE      CE M301 CONTROL SNAP                    
14/09/2004 05:02:17.9 [SCE01   ] CE_M310_A_TMOUT_SEARCH_HM_POS  CFN             CLOSE      CE M310 TIME OUT SEARCH HOME POSITION   
14/09/2004 05:02:18.9 [SCE01   ] CE_M310_A_TMOUT_SEARCH_HM_POS  CFN             CLOSE      CE M310 TIME OUT SEARCH HOME POSITION   
14/09/2004 05:02:41.2 [SCE01   ] CE_M310_A_TMOUT_SEARCH_HM_POS ALARM is acknowledged by WC4CE04::COLD END OPERATOR                  
14/09/2004 05:02:41.3 [SCE01   ] CE_M310_A_TMOUT_SEARCH_HM_POS ALARM is acknowledged by WC4CE04::COLD END OPERATOR                  
14/09/2004 05:02:48.9 [SCE01   ] CE_M301_AN_ERROR_LENGTH_DATA   OK               OPEN      CE M301 ERROR LENGTH DATA               
14/09/2004 05:02:48.9 [SCE01   ] CE_M301_ANM_CRTL_SNAP          OK               OPEN      CE M301 CONTROL SNAP                    
14/09/2004 05:02:48.1 [SCE01   ] Fix32.SCE01.Z301_1_ANOMALY_RESET.F_CV set to 1 by WC4CE04::COLD END OPERATOR                       
14/09/2004 05:02:48.9 [SCE01   ] CE_M301_AN_ERROR_LENGTH_DATA   OK               OPEN      CE M301 ERROR LENGTH DATA               
14/09/2004 05:02:48.9 [SCE01   ] CE_M301_ANM_CRTL_SNAP          OK               OPEN      CE M301 CONTROL SNAP                    
14/09/2004 05:03:02.7 [SCE01   ] Fix32.SCE01.Z302_2_ANOMALY_RESET.F_CV set to 1 by WC4CE03::COLD END OPERATOR                       
14/09/2004 05:03:03.9 [SCE01   ] CE_M310_A_TMOUT_SEARCH_HM_POS  OK               OPEN      CE M310 TIME OUT SEARCH HOME POSITION   
14/09/2004 05:03:03.9 [SCE01   ] CE_M310_A_TMOUT_SEARCH_HM_POS  OK               OPEN      CE M310 TIME OUT SEARCH HOME POSITION   
14/09/2004 05:03:05.3 [SCE01   ] Fix32.SCE01.Z302_2_ANOMALY_RESET.F_CV set to 1 by WC4CE03::COLD END OPERATOR                       
14/09/2004 05:03:57.4 [SCE01   ] Fix32.SCE01.Z302_2_5_WR_CLEAN_MACHINE.F_CV set to 308 by WC4CE03::COLD END OPERATOR                
14/09/2004 05:03:59.8 [SBP01   ] Fix32.thisnode.name1.A_CV set to Areia 1 by SC4BP01::BATCH RECIPE                                  
14/09/2004 05:03:59.8 [SBP01   ] Fix32.thisnode.name2.A_CV set to Areia 2 by SC4BP01::BATCH RECIPE                                  
14/09/2004 05:03:59.8 [SBP01   ] Fix32.thisnode.name3.A_CV set to Dolomita by SC4BP01::BATCH RECIPE                                 
14/09/2004 05:03:59.9 [SBP01   ] Fix32.thisnode.name4.A_CV set to Calcario by SC4BP01::BATCH RECIPE                                 
14/09/2004 05:03:59.9 [SBP01   ] Fix32.thisnode.name5.A_CV set to Reserva by SC4BP01::BATCH RECIPE                                  
14/09/2004 05:03:59.9 [SBP01   ] Fix32.thisnode.name6.A_CV set to Barrilha by SC4BP01::BATCH RECIPE                                 
14/09/2004 05:03:59.9 [SBP01   ] Fix32.thisnode.name7.A_CV set to Feldspato by SC4BP01::BATCH RECIPE                                
14/09/2004 05:03:59.9 [SBP01   ] Fix32.thisnode.name8.A_CV set to Sulfato by SC4BP01::BATCH RECIPE                                  
14/09/2004 05:03:59.9 [SBP01   ] Fix32.thisnode.name9.A_CV set to Po de EP by SC4BP01::BATCH RECIPE                                 
14/09/2004 05:04:00.0 [SBP01   ] Fix32.thisnode.name10.A_CV set to Grafite by SC4BP01::BATCH RECIPE                                 
14/09/2004 05:04:00.0 [SBP01   ] Fix32.thisnode.name11.A_CV set to Ferro by SC4BP01::BATCH RECIPE                                   
14/09/2004 05:04:08.3 [SCE01   ] Fix32.SCE01.Z302_2_CLEAN_REQUEST.F_CV set to 1 by WC4CE04::COLD END OPERATOR                       
14/09/2004 05:04:00.0 [SBP01   ] Fix32.thisnode.name12.A_CV set to Nitrato by SC4BP01::BATCH RECIPE                                 
14/09/2004 05:04:00.0 [SBP01   ] Fix32.thisnode.name14.A_CV set to Selenio by SC4BP01::BATCH RECIPE                                 
14/09/2004 05:04:00.1 [SBP01   ] Fix32.thisnode.name15.A_CV set to Cobalto by SC4BP01::BATCH RECIPE                                 
14/09/2004 05:04:00.1 [SBP01   ] Fix32.thisnode.name16.A_CV set to Ferro by SC4BP01::BATCH RECIPE                                   
14/09/2004 05:04:00.1 [SBP01   ] Fix32.thisnode.name20.A_CV set to Caco by SC4BP01::BATCH RECIPE                                    
14/09/2004 05:04:00.2 [SBP01   ] Fix32.thisnode.name50.A_CV set to  gua by SC4BP01::BATCH RECIPE                                    
14/09/2004 05:04:00.2 [SBP01   ] Fix32.thisnode.name51.A_CV set to Vapor by SC4BP01::BATCH RECIPE                                   
14/09/2004 05:04:00.2 [SBP01   ] Fix32.thisnode.name201.A_CV set to Mst 1 seco by SC4BP01::BATCH RECIPE                             
14/09/2004 05:04:00.2 [SBP01   ] Fix32.thisnode.name202.A_CV set to Mst 2 seco by SC4BP01::BATCH RECIPE                             
14/09/2004 05:04:00.2 [SBP01   ] Fix32.thisnode.name203.A_CV set to Mst 1  mido by SC4BP01::BATCH RECIPE                            
14/09/2004 05:04:00.2 [SBP01   ] Fix32.thisnode.name204.A_CV set to Mst 2  mido by SC4BP01::BATCH RECIPE                            
14/09/2004 05:04:16.2 [SCE01   ] Fix32.SCE01.Z302_2_CLEAN_STOP.F_CV set to 1 by WC4CE04::COLD END OPERATOR                          
14/09/2004 05:06:24.6 [SCE01   ] CE_M301_ANM_CRTL_SNAP ALARM is acknowledged by WC4CE01::COLD END OPERATOR                          
14/09/2004 05:06:24.8 [SCE01   ] CE_M301_ANM_CRTL_SNAP ALARM is acknowledged by WC4CE01::COLD END OPERATOR                          
14/09/2004 05:06:26.8 [SCE01   ] CE_M301_AN_ERROR_LENGTH_DATA ALARM is acknowledged by WC4CE01::COLD END OPERATOR                   
14/09/2004 05:06:27.0 [SCE01   ] CE_M301_AN_ERROR_LENGTH_DATA ALARM is acknowledged by WC4CE01::COLD END OPERATOR                   
14/09/2004 05:07:59.8 [SBP01   ] Fix32.thisnode.name1.A_CV set to Areia 1 by SC4BP01::BATCH RECIPE                                  
14/09/2004 05:07:59.9 [SBP01   ] Fix32.thisnode.name2.A_CV set to Areia 2 by SC4BP01::BATCH RECIPE                                  
14/09/2004 05:07:59.9 [SBP01   ] Fix32.thisnode.name3.A_CV set to Dolomita by SC4BP01::BATCH RECIPE                                 
14/09/2004 05:07:59.9 [SBP01   ] Fix32.thisnode.name4.A_CV set to Calcario by SC4BP01::BATCH RECIPE                                 
14/09/2004 05:07:59.9 [SBP01   ] Fix32.thisnode.name5.A_CV set to Reserva by SC4BP01::BATCH RECIPE                                  
14/09/2004 05:07:59.9 [SBP01   ] Fix32.thisnode.name6.A_CV set to Barrilha by SC4BP01::BATCH RECIPE                                 
14/09/2004 05:07:59.9 [SBP01   ] Fix32.thisnode.name7.A_CV set to Feldspato by SC4BP01::BATCH RECIPE                                
14/09/2004 05:07:59.9 [SBP01   ] Fix32.thisnode.name8.A_CV set to Sulfato by SC4BP01::BATCH RECIPE                                  
14/09/2004 05:07:59.9 [SBP01   ] Fix32.thisnode.name9.A_CV set to Po de EP by SC4BP01::BATCH RECIPE                                 
14/09/2004 05:07:59.9 [SBP01   ] Fix32.thisnode.name10.A_CV set to Grafite by SC4BP01::BATCH RECIPE                                 
14/09/2004 05:08:00.0 [SBP01   ] Fix32.thisnode.name11.A_CV set to Ferro by SC4BP01::BATCH RECIPE                                   
14/09/2004 05:08:00.0 [SBP01   ] Fix32.thisnode.name12.A_CV set to Nitrato by SC4BP01::BATCH RECIPE                                 
14/09/2004 05:08:00.0 [SBP01   ] Fix32.thisnode.name14.A_CV set to Selenio by SC4BP01::BATCH RECIPE                                 
14/09/2004 05:08:00.0 [SBP01   ] Fix32.thisnode.name15.A_CV set to Cobalto by SC4BP01::BATCH RECIPE                                 
14/09/2004 05:08:00.0 [SBP01   ] Fix32.thisnode.name16.A_CV set to Ferro by SC4BP01::BATCH RECIPE                                   
14/09/2004 05:08:00.0 [SBP01   ] Fix32.thisnode.name20.A_CV set to Caco by SC4BP01::BATCH RECIPE                                    
14/09/2004 05:08:00.0 [SBP01   ] Fix32.thisnode.name50.A_CV set to  gua by SC4BP01::BATCH RECIPE                                    
14/09/2004 05:08:00.1 [SBP01   ] Fix32.thisnode.name51.A_CV set to Vapor by SC4BP01::BATCH RECIPE                                   
14/09/2004 05:08:00.1 [SBP01   ] Fix32.thisnode.name201.A_CV set to Mst 1 seco by SC4BP01::BATCH RECIPE                             
14/09/2004 05:08:00.1 [SBP01   ] Fix32.thisnode.name202.A_CV set to Mst 2 seco by SC4BP01::BATCH RECIPE                             
14/09/2004 05:08:00.1 [SBP01   ] Fix32.thisnode.name203.A_CV set to Mst 1  mido by SC4BP01::BATCH RECIPE                            
14/09/2004 05:08:00.1 [SBP01   ] Fix32.thisnode.name204.A_CV set to Mst 2  mido by SC4BP01::BATCH RECIPE                            
14/09/2004 05:11:59.8 [SBP01   ] Fix32.thisnode.name1.A_CV set to Areia 1 by SC4BP01::BATCH RECIPE                                  
14/09/2004 05:11:59.8 [SBP01   ] Fix32.thisnode.name2.A_CV set to Areia 2 by SC4BP01::BATCH RECIPE                                  
14/09/2004 05:11:59.8 [SBP01   ] Fix32.thisnode.name3.A_CV set to Dolomita by SC4BP01::BATCH RECIPE                                 
14/09/2004 05:11:59.8 [SBP01   ] Fix32.thisnode.name4.A_CV set to Calcario by SC4BP01::BATCH RECIPE                                 
14/09/2004 05:11:59.9 [SBP01   ] Fix32.thisnode.name5.A_CV set to Reserva by SC4BP01::BATCH RECIPE                                  
14/09/2004 05:11:59.9 [SBP01   ] Fix32.thisnode.name6.A_CV set to Barrilha by SC4BP01::BATCH RECIPE                                 
14/09/2004 05:11:59.9 [SBP01   ] Fix32.thisnode.name7.A_CV set to Feldspato by SC4BP01::BATCH RECIPE                                
14/09/2004 05:11:59.9 [SBP01   ] Fix32.thisnode.name8.A_CV set to Sulfato by SC4BP01::BATCH RECIPE                                  
14/09/2004 05:11:59.9 [SBP01   ] Fix32.thisnode.name9.A_CV set to Po de EP by SC4BP01::BATCH RECIPE                                 
14/09/2004 05:11:59.9 [SBP01   ] Fix32.thisnode.name10.A_CV set to Grafite by SC4BP01::BATCH RECIPE                                 
14/09/2004 05:11:59.9 [SBP01   ] Fix32.thisnode.name11.A_CV set to Ferro by SC4BP01::BATCH RECIPE                                   
14/09/2004 05:11:59.9 [SBP01   ] Fix32.thisnode.name12.A_CV set to Nitrato by SC4BP01::BATCH RECIPE                                 
14/09/2004 05:12:00.0 [SBP01   ] Fix32.thisnode.name14.A_CV set to Selenio by SC4BP01::BATCH RECIPE                                 
14/09/2004 05:12:00.0 [SBP01   ] Fix32.thisnode.name15.A_CV set to Cobalto by SC4BP01::BATCH RECIPE                                 
14/09/2004 05:12:00.0 [SBP01   ] Fix32.thisnode.name16.A_CV set to Ferro by SC4BP01::BATCH RECIPE                                   
14/09/2004 05:12:00.0 [SBP01   ] Fix32.thisnode.name20.A_CV set to Caco by SC4BP01::BATCH RECIPE                                    
14/09/2004 05:12:00.0 [SBP01   ] Fix32.thisnode.name50.A_CV set to  gua by SC4BP01::BATCH RECIPE                                    
14/09/2004 05:12:00.0 [SBP01   ] Fix32.thisnode.name51.A_CV set to Vapor by SC4BP01::BATCH RECIPE                                   
14/09/2004 05:12:00.1 [SBP01   ] Fix32.thisnode.name201.A_CV set to Mst 1 seco by SC4BP01::BATCH RECIPE                             
14/09/2004 05:12:00.1 [SBP01   ] Fix32.thisnode.name202.A_CV set to Mst 2 seco by SC4BP01::BATCH RECIPE                             
14/09/2004 05:12:00.1 [SBP01   ] Fix32.thisnode.name203.A_CV set to Mst 1  mido by SC4BP01::BATCH RECIPE                            
14/09/2004 05:12:00.1 [SBP01   ] Fix32.thisnode.name204.A_CV set to Mst 2  mido by SC4BP01::BATCH RECIPE                            
14/09/2004 05:15:59.8 [SBP01   ] Fix32.thisnode.name1.A_CV set to Areia 1 by SC4BP01::BATCH RECIPE                                  
14/09/2004 05:15:59.8 [SBP01   ] Fix32.thisnode.name2.A_CV set to Areia 2 by SC4BP01::BATCH RECIPE                                  
14/09/2004 05:15:59.8 [SBP01   ] Fix32.thisnode.name3.A_CV set to Dolomita by SC4BP01::BATCH RECIPE                                 
14/09/2004 05:15:59.9 [SBP01   ] Fix32.thisnode.name4.A_CV set to Calcario by SC4BP01::BATCH RECIPE                                 
14/09/2004 05:15:59.9 [SBP01   ] Fix32.thisnode.name5.A_CV set to Reserva by SC4BP01::BATCH RECIPE                                  
14/09/2004 05:15:59.9 [SBP01   ] Fix32.thisnode.name6.A_CV set to Barrilha by SC4BP01::BATCH RECIPE                                 
14/09/2004 05:15:59.9 [SBP01   ] Fix32.thisnode.name7.A_CV set to Feldspato by SC4BP01::BATCH RECIPE                                
14/09/2004 05:15:59.9 [SBP01   ] Fix32.thisnode.name8.A_CV set to Sulfato by SC4BP01::BATCH RECIPE                                  
14/09/2004 05:15:59.9 [SBP01   ] Fix32.thisnode.name9.A_CV set to Po de EP by SC4BP01::BATCH RECIPE                                 
14/09/2004 05:15:59.9 [SBP01   ] Fix32.thisnode.name10.A_CV set to Grafite by SC4BP01::BATCH RECIPE                                 
14/09/2004 05:15:59.9 [SBP01   ] Fix32.thisnode.name11.A_CV set to Ferro by SC4BP01::BATCH RECIPE                                   
14/09/2004 05:16:00.0 [SBP01   ] Fix32.thisnode.name12.A_CV set to Nitrato by SC4BP01::BATCH RECIPE                                 
14/09/2004 05:16:00.0 [SBP01   ] Fix32.thisnode.name14.A_CV set to Selenio by SC4BP01::BATCH RECIPE                                 
14/09/2004 05:16:00.0 [SBP01   ] Fix32.thisnode.name15.A_CV set to Cobalto by SC4BP01::BATCH RECIPE                                 
14/09/2004 05:16:00.0 [SBP01   ] Fix32.thisnode.name16.A_CV set to Ferro by SC4BP01::BATCH RECIPE                                   
14/09/2004 05:16:00.0 [SBP01   ] Fix32.thisnode.name20.A_CV set to Caco by SC4BP01::BATCH RECIPE                                    
14/09/2004 05:16:00.0 [SBP01   ] Fix32.thisnode.name50.A_CV set to  gua by SC4BP01::BATCH RECIPE                                    
14/09/2004 05:16:00.1 [SBP01   ] Fix32.thisnode.name51.A_CV set to Vapor by SC4BP01::BATCH RECIPE                                   
14/09/2004 05:16:00.1 [SBP01   ] Fix32.thisnode.name201.A_CV set to Mst 1 seco by SC4BP01::BATCH RECIPE                             
14/09/2004 05:16:00.1 [SBP01   ] Fix32.thisnode.name202.A_CV set to Mst 2 seco by SC4BP01::BATCH RECIPE                             
14/09/2004 05:16:00.1 [SBP01   ] Fix32.thisnode.name203.A_CV set to Mst 1  mido by SC4BP01::BATCH RECIPE                            
14/09/2004 05:16:00.2 [SBP01   ] Fix32.thisnode.name204.A_CV set to Mst 2  mido by SC4BP01::BATCH RECIPE                            
14/09/2004 05:17:14.3 [SCE01   ] Fix32.SCE01.PAT15_RASP.F_CV set to 1 by WC4CE02::COLD END OPERATOR                                 
14/09/2004 05:18:03.4 [SCE01   ] CE_M601_ANM_SAFETY_AREA        CFN             CLOSE      CE M601 SAFETY AREA                     
14/09/2004 05:18:03.9 [SCE01   ] CE_M601_ANM_SAFETY_AREA        CFN             CLOSE      CE M601 SAFETY AREA                     
14/09/2004 05:18:44.9 [SCE01   ] CE_M601_ANM_SAFETY_AREA        OK               OPEN      CE M601 SAFETY AREA                     
14/09/2004 05:18:45.4 [SCE01   ] CE_M601_ANM_SAFETY_AREA        OK               OPEN      CE M601 SAFETY AREA                     
14/09/2004 05:19:00.4 SC4BP01 SECURITY VIOLATION: BATCH RECIPE access to APPLICATION FEATURE System User Login                      
14/09/2004 05:19:01.5 BATCH RECIPE  logged out as Application User                                                                  
14/09/2004 05:18:59.6 [SCE01   ] CE_M601_ANM_SAFETY_AREA ALARM is acknowledged by WC4CE01::COLD END OPERATOR                        
14/09/2004 05:18:59.8 [SCE01   ] CE_M601_ANM_SAFETY_AREA ALARM is acknowledged by WC4CE01::COLD END OPERATOR                        
14/09/2004 05:19:10.1 PRODUCTION ENGINEERS  logged in as Application User                                                           
14/09/2004 05:19:16.2 [SHE01   ] Fix32.SHE01.PID_F151.F_SL set to 815 by SC4BP01::PRODUCTION ENGINEERS                              
14/09/2004 05:19:21.1 [SHE01   ] Fix32.SHE01.PID_F154.F_SL set to 265 by SC4BP01::PRODUCTION ENGINEERS                              
14/09/2004 05:19:40.2 SC4BP01 SECURITY VIOLATION: PRODUCTION ENGINEERS access to APPLICATION FEATURE System User Login              
14/09/2004 05:19:41.4 [SCE01   ] CE_M604_ANM_SAFETY_AREA        CFN             CLOSE      CE M604 SAFETY AREA                     
14/09/2004 05:19:41.9 [SCE01   ] CE_M604_ANM_SAFETY_AREA        CFN             CLOSE      CE M604 SAFETY AREA                     
14/09/2004 05:19:41.1 PRODUCTION ENGINEERS  logged out as Application User                                                          
14/09/2004 05:19:48.4 BATCH RECIPE  logged in as Application User                                                                   
14/09/2004 05:20:00.3 [SBP01   ] Fix32.thisnode.name1.A_CV set to Areia 1 by SC4BP01::BATCH RECIPE                                  
14/09/2004 05:20:00.3 [SBP01   ] Fix32.thisnode.name2.A_CV set to Areia 2 by SC4BP01::BATCH RECIPE                                  
14/09/2004 05:20:00.3 [SBP01   ] Fix32.thisnode.name3.A_CV set to Dolomita by SC4BP01::BATCH RECIPE                                 
14/09/2004 05:20:00.4 [SBP01   ] Fix32.thisnode.name4.A_CV set to Calcario by SC4BP01::BATCH RECIPE                                 
14/09/2004 05:20:00.4 [SBP01   ] Fix32.thisnode.name5.A_CV set to Reserva by SC4BP01::BATCH RECIPE                                  
14/09/2004 05:20:00.5 [SBP01   ] Fix32.thisnode.name6.A_CV set to Barrilha by SC4BP01::BATCH RECIPE                                 
14/09/2004 05:20:00.5 [SBP01   ] Fix32.thisnode.name7.A_CV set to Feldspato by SC4BP01::BATCH RECIPE                                
14/09/2004 05:20:00.5 [SBP01   ] Fix32.thisnode.name8.A_CV set to Sulfato by SC4BP01::BATCH RECIPE                                  
14/09/2004 05:20:00.5 [SBP01   ] Fix32.thisnode.name9.A_CV set to Po de EP by SC4BP01::BATCH RECIPE                                 
14/09/2004 05:20:00.5 [SBP01   ] Fix32.thisnode.name10.A_CV set to Grafite by SC4BP01::BATCH RECIPE                                 
14/09/2004 05:20:00.6 [SBP01   ] Fix32.thisnode.name11.A_CV set to Ferro by SC4BP01::BATCH RECIPE                                   
14/09/2004 05:20:07.0 [SCE01   ] CE_M604_ANM_SAFETY_AREA        OK               OPEN      CE M604 SAFETY AREA                     
14/09/2004 05:20:07.4 [SCE01   ] CE_M604_ANM_SAFETY_AREA        OK               OPEN      CE M604 SAFETY AREA                     
14/09/2004 05:20:00.6 [SBP01   ] Fix32.thisnode.name12.A_CV set to Nitrato by SC4BP01::BATCH RECIPE                                 
14/09/2004 05:20:00.6 [SBP01   ] Fix32.thisnode.name14.A_CV set to Selenio by SC4BP01::BATCH RECIPE                                 
14/09/2004 05:20:00.6 [SBP01   ] Fix32.thisnode.name15.A_CV set to Cobalto by SC4BP01::BATCH RECIPE                                 
14/09/2004 05:20:00.7 [SBP01   ] Fix32.thisnode.name16.A_CV set to Ferro by SC4BP01::BATCH RECIPE                                   
14/09/2004 05:20:00.7 [SBP01   ] Fix32.thisnode.name20.A_CV set to Caco by SC4BP01::BATCH RECIPE                                    
14/09/2004 05:20:00.7 [SBP01   ] Fix32.thisnode.name50.A_CV set to  gua by SC4BP01::BATCH RECIPE                                    
14/09/2004 05:20:00.7 [SBP01   ] Fix32.thisnode.name51.A_CV set to Vapor by SC4BP01::BATCH RECIPE                                   
14/09/2004 05:20:00.7 [SBP01   ] Fix32.thisnode.name201.A_CV set to Mst 1 seco by SC4BP01::BATCH RECIPE                             
14/09/2004 05:20:00.7 [SBP01   ] Fix32.thisnode.name202.A_CV set to Mst 2 seco by SC4BP01::BATCH RECIPE                             
14/09/2004 05:20:00.7 [SBP01   ] Fix32.thisnode.name203.A_CV set to Mst 1  mido by SC4BP01::BATCH RECIPE                            
14/09/2004 05:20:00.7 [SBP01   ] Fix32.thisnode.name204.A_CV set to Mst 2  mido by SC4BP01::BATCH RECIPE                            
14/09/2004 05:23:59.8 [SBP01   ] Fix32.thisnode.name1.A_CV set to Areia 1 by SC4BP01::BATCH RECIPE                                  
14/09/2004 05:23:59.8 [SBP01   ] Fix32.thisnode.name2.A_CV set to Areia 2 by SC4BP01::BATCH RECIPE                                  
14/09/2004 05:23:59.8 [SBP01   ] Fix32.thisnode.name3.A_CV set to Dolomita by SC4BP01::BATCH RECIPE                                 
14/09/2004 05:23:59.9 [SBP01   ] Fix32.thisnode.name4.A_CV set to Calcario by SC4BP01::BATCH RECIPE                                 
14/09/2004 05:23:59.9 [SBP01   ] Fix32.thisnode.name5.A_CV set to Reserva by SC4BP01::BATCH RECIPE                                  
14/09/2004 05:23:59.9 [SBP01   ] Fix32.thisnode.name6.A_CV set to Barrilha by SC4BP01::BATCH RECIPE                                 
14/09/2004 05:23:59.9 [SBP01   ] Fix32.thisnode.name7.A_CV set to Feldspato by SC4BP01::BATCH RECIPE                                
14/09/2004 05:23:59.9 [SBP01   ] Fix32.thisnode.name8.A_CV set to Sulfato by SC4BP01::BATCH RECIPE                                  
14/09/2004 05:23:59.9 [SBP01   ] Fix32.thisnode.name9.A_CV set to Po de EP by SC4BP01::BATCH RECIPE                                 
14/09/2004 05:24:00.0 [SBP01   ] Fix32.thisnode.name10.A_CV set to Grafite by SC4BP01::BATCH RECIPE                                 
14/09/2004 05:24:00.0 [SBP01   ] Fix32.thisnode.name11.A_CV set to Ferro by SC4BP01::BATCH RECIPE                                   
14/09/2004 05:24:00.0 [SBP01   ] Fix32.thisnode.name12.A_CV set to Nitrato by SC4BP01::BATCH RECIPE                                 
14/09/2004 05:24:00.0 [SBP01   ] Fix32.thisnode.name14.A_CV set to Selenio by SC4BP01::BATCH RECIPE                                 
14/09/2004 05:24:00.0 [SBP01   ] Fix32.thisnode.name15.A_CV set to Cobalto by SC4BP01::BATCH RECIPE                                 
14/09/2004 05:24:00.1 [SBP01   ] Fix32.thisnode.name16.A_CV set to Ferro by SC4BP01::BATCH RECIPE                                   
14/09/2004 05:24:00.1 [SBP01   ] Fix32.thisnode.name20.A_CV set to Caco by SC4BP01::BATCH RECIPE                                    
14/09/2004 05:24:00.1 [SBP01   ] Fix32.thisnode.name50.A_CV set to  gua by SC4BP01::BATCH RECIPE                                    
14/09/2004 05:24:00.1 [SBP01   ] Fix32.thisnode.name51.A_CV set to Vapor by SC4BP01::BATCH RECIPE                                   
14/09/2004 05:24:00.1 [SBP01   ] Fix32.thisnode.name201.A_CV set to Mst 1 seco by SC4BP01::BATCH RECIPE                             
14/09/2004 05:24:00.1 [SBP01   ] Fix32.thisnode.name202.A_CV set to Mst 2 seco by SC4BP01::BATCH RECIPE                             
14/09/2004 05:24:00.2 [SBP01   ] Fix32.thisnode.name203.A_CV set to Mst 1  mido by SC4BP01::BATCH RECIPE                            
14/09/2004 05:24:00.2 [SBP01   ] Fix32.thisnode.name204.A_CV set to Mst 2  mido by SC4BP01::BATCH RECIPE                            
14/09/2004 05:27:59.8 [SBP01   ] Fix32.thisnode.name1.A_CV set to Areia 1 by SC4BP01::BATCH RECIPE                                  
14/09/2004 05:27:59.8 [SBP01   ] Fix32.thisnode.name2.A_CV set to Areia 2 by SC4BP01::BATCH RECIPE                                  
14/09/2004 05:27:59.8 [SBP01   ] Fix32.thisnode.name3.A_CV set to Dolomita by SC4BP01::BATCH RECIPE                                 
14/09/2004 05:27:59.8 [SBP01   ] Fix32.thisnode.name4.A_CV set to Calcario by SC4BP01::BATCH RECIPE                                 
14/09/2004 05:27:59.9 [SBP01   ] Fix32.thisnode.name5.A_CV set to Reserva by SC4BP01::BATCH RECIPE                                  
14/09/2004 05:27:59.9 [SBP01   ] Fix32.thisnode.name6.A_CV set to Barrilha by SC4BP01::BATCH RECIPE                                 
14/09/2004 05:27:59.9 [SBP01   ] Fix32.thisnode.name7.A_CV set to Feldspato by SC4BP01::BATCH RECIPE                                
14/09/2004 05:27:59.9 [SBP01   ] Fix32.thisnode.name8.A_CV set to Sulfato by SC4BP01::BATCH RECIPE                                  
14/09/2004 05:28:00.0 [SBP01   ] Fix32.thisnode.name9.A_CV set to Po de EP by SC4BP01::BATCH RECIPE                                 
14/09/2004 05:28:00.0 [SBP01   ] Fix32.thisnode.name10.A_CV set to Grafite by SC4BP01::BATCH RECIPE                                 
14/09/2004 05:28:00.0 [SBP01   ] Fix32.thisnode.name11.A_CV set to Ferro by SC4BP01::BATCH RECIPE                                   
14/09/2004 05:28:00.0 [SBP01   ] Fix32.thisnode.name12.A_CV set to Nitrato by SC4BP01::BATCH RECIPE                                 
14/09/2004 05:28:00.0 [SBP01   ] Fix32.thisnode.name14.A_CV set to Selenio by SC4BP01::BATCH RECIPE                                 
14/09/2004 05:28:00.0 [SBP01   ] Fix32.thisnode.name15.A_CV set to Cobalto by SC4BP01::BATCH RECIPE                                 
14/09/2004 05:28:00.1 [SBP01   ] Fix32.thisnode.name16.A_CV set to Ferro by SC4BP01::BATCH RECIPE                                   
14/09/2004 05:28:00.1 [SBP01   ] Fix32.thisnode.name20.A_CV set to Caco by SC4BP01::BATCH RECIPE                                    
14/09/2004 05:28:00.1 [SBP01   ] Fix32.thisnode.name50.A_CV set to  gua by SC4BP01::BATCH RECIPE                                    
14/09/2004 05:28:00.1 [SBP01   ] Fix32.thisnode.name51.A_CV set to Vapor by SC4BP01::BATCH RECIPE                                   
14/09/2004 05:28:00.1 [SBP01   ] Fix32.thisnode.name201.A_CV set to Mst 1 seco by SC4BP01::BATCH RECIPE                             
14/09/2004 05:28:00.1 [SBP01   ] Fix32.thisnode.name202.A_CV set to Mst 2 seco by SC4BP01::BATCH RECIPE                             
14/09/2004 05:28:00.2 [SBP01   ] Fix32.thisnode.name203.A_CV set to Mst 1  mido by SC4BP01::BATCH RECIPE                            
14/09/2004 05:28:00.2 [SBP01   ] Fix32.thisnode.name204.A_CV set to Mst 2  mido by SC4BP01::BATCH RECIPE                            
14/09/2004 05:31:59.8 [SBP01   ] Fix32.thisnode.name1.A_CV set to Areia 1 by SC4BP01::BATCH RECIPE                                  
14/09/2004 05:31:59.8 [SBP01   ] Fix32.thisnode.name2.A_CV set to Areia 2 by SC4BP01::BATCH RECIPE                                  
14/09/2004 05:31:59.8 [SBP01   ] Fix32.thisnode.name3.A_CV set to Dolomita by SC4BP01::BATCH RECIPE                                 
14/09/2004 05:31:59.9 [SBP01   ] Fix32.thisnode.name4.A_CV set to Calcario by SC4BP01::BATCH RECIPE                                 
14/09/2004 05:31:59.9 [SBP01   ] Fix32.thisnode.name5.A_CV set to Reserva by SC4BP01::BATCH RECIPE                                  
14/09/2004 05:31:59.9 [SBP01   ] Fix32.thisnode.name6.A_CV set to Barrilha by SC4BP01::BATCH RECIPE                                 
14/09/2004 05:31:59.9 [SBP01   ] Fix32.thisnode.name7.A_CV set to Feldspato by SC4BP01::BATCH RECIPE                                
14/09/2004 05:31:59.9 [SBP01   ] Fix32.thisnode.name8.A_CV set to Sulfato by SC4BP01::BATCH RECIPE                                  
14/09/2004 05:31:59.9 [SBP01   ] Fix32.thisnode.name9.A_CV set to Po de EP by SC4BP01::BATCH RECIPE                                 
14/09/2004 05:31:59.9 [SBP01   ] Fix32.thisnode.name10.A_CV set to Grafite by SC4BP01::BATCH RECIPE                                 
14/09/2004 05:32:00.0 [SBP01   ] Fix32.thisnode.name11.A_CV set to Ferro by SC4BP01::BATCH RECIPE                                   
14/09/2004 05:32:00.0 [SBP01   ] Fix32.thisnode.name12.A_CV set to Nitrato by SC4BP01::BATCH RECIPE                                 
14/09/2004 05:32:00.0 [SBP01   ] Fix32.thisnode.name14.A_CV set to Selenio by SC4BP01::BATCH RECIPE                                 
14/09/2004 05:32:00.0 [SBP01   ] Fix32.thisnode.name15.A_CV set to Cobalto by SC4BP01::BATCH RECIPE                                 
14/09/2004 05:32:00.0 [SBP01   ] Fix32.thisnode.name16.A_CV set to Ferro by SC4BP01::BATCH RECIPE                                   
14/09/2004 05:32:00.0 [SBP01   ] Fix32.thisnode.name20.A_CV set to Caco by SC4BP01::BATCH RECIPE                                    
14/09/2004 05:32:00.0 [SBP01   ] Fix32.thisnode.name50.A_CV set to  gua by SC4BP01::BATCH RECIPE                                    
14/09/2004 05:32:00.0 [SBP01   ] Fix32.thisnode.name51.A_CV set to Vapor by SC4BP01::BATCH RECIPE                                   
14/09/2004 05:32:00.1 [SBP01   ] Fix32.thisnode.name201.A_CV set to Mst 1 seco by SC4BP01::BATCH RECIPE                             
14/09/2004 05:32:00.1 [SBP01   ] Fix32.thisnode.name202.A_CV set to Mst 2 seco by SC4BP01::BATCH RECIPE                             
14/09/2004 05:32:00.1 [SBP01   ] Fix32.thisnode.name203.A_CV set to Mst 1  mido by SC4BP01::BATCH RECIPE                            
14/09/2004 05:32:00.1 [SBP01   ] Fix32.thisnode.name204.A_CV set to Mst 2  mido by SC4BP01::BATCH RECIPE                            
14/09/2004 05:35:59.8 [SBP01   ] Fix32.thisnode.name1.A_CV set to Areia 1 by SC4BP01::BATCH RECIPE                                  
14/09/2004 05:35:59.8 [SBP01   ] Fix32.thisnode.name2.A_CV set to Areia 2 by SC4BP01::BATCH RECIPE                                  
14/09/2004 05:35:59.8 [SBP01   ] Fix32.thisnode.name3.A_CV set to Dolomita by SC4BP01::BATCH RECIPE                                 
14/09/2004 05:35:59.8 [SBP01   ] Fix32.thisnode.name4.A_CV set to Calcario by SC4BP01::BATCH RECIPE                                 
14/09/2004 05:35:59.9 [SBP01   ] Fix32.thisnode.name5.A_CV set to Reserva by SC4BP01::BATCH RECIPE                                  
14/09/2004 05:35:59.9 [SBP01   ] Fix32.thisnode.name6.A_CV set to Barrilha by SC4BP01::BATCH RECIPE                                 
14/09/2004 05:35:59.9 [SBP01   ] Fix32.thisnode.name7.A_CV set to Feldspato by SC4BP01::BATCH RECIPE                                
14/09/2004 05:35:59.9 [SBP01   ] Fix32.thisnode.name8.A_CV set to Sulfato by SC4BP01::BATCH RECIPE                                  
14/09/2004 05:35:59.9 [SBP01   ] Fix32.thisnode.name9.A_CV set to Po de EP by SC4BP01::BATCH RECIPE                                 
14/09/2004 05:36:00.0 [SBP01   ] Fix32.thisnode.name10.A_CV set to Grafite by SC4BP01::BATCH RECIPE                                 
14/09/2004 05:36:00.0 [SBP01   ] Fix32.thisnode.name11.A_CV set to Ferro by SC4BP01::BATCH RECIPE                                   
14/09/2004 05:36:00.0 [SBP01   ] Fix32.thisnode.name12.A_CV set to Nitrato by SC4BP01::BATCH RECIPE                                 
14/09/2004 05:36:00.0 [SBP01   ] Fix32.thisnode.name14.A_CV set to Selenio by SC4BP01::BATCH RECIPE                                 
14/09/2004 05:36:00.0 [SBP01   ] Fix32.thisnode.name15.A_CV set to Cobalto by SC4BP01::BATCH RECIPE                                 
14/09/2004 05:36:00.0 [SBP01   ] Fix32.thisnode.name16.A_CV set to Ferro by SC4BP01::BATCH RECIPE                                   
14/09/2004 05:36:00.0 [SBP01   ] Fix32.thisnode.name20.A_CV set to Caco by SC4BP01::BATCH RECIPE                                    
14/09/2004 05:36:00.1 [SBP01   ] Fix32.thisnode.name50.A_CV set to  gua by SC4BP01::BATCH RECIPE                                    
14/09/2004 05:36:00.1 [SBP01   ] Fix32.thisnode.name51.A_CV set to Vapor by SC4BP01::BATCH RECIPE                                   
14/09/2004 05:36:00.1 [SBP01   ] Fix32.thisnode.name201.A_CV set to Mst 1 seco by SC4BP01::BATCH RECIPE                             
14/09/2004 05:36:00.1 [SBP01   ] Fix32.thisnode.name202.A_CV set to Mst 2 seco by SC4BP01::BATCH RECIPE                             
14/09/2004 05:36:00.1 [SBP01   ] Fix32.thisnode.name203.A_CV set to Mst 1  mido by SC4BP01::BATCH RECIPE                            
14/09/2004 05:36:00.1 [SBP01   ] Fix32.thisnode.name204.A_CV set to Mst 2  mido by SC4BP01::BATCH RECIPE                            
14/09/2004 05:40:00.2 [SBP01   ] Fix32.thisnode.name1.A_CV set to Areia 1 by SC4BP01::BATCH RECIPE                                  
14/09/2004 05:40:00.2 [SBP01   ] Fix32.thisnode.name2.A_CV set to Areia 2 by SC4BP01::BATCH RECIPE                                  
14/09/2004 05:40:00.3 [SBP01   ] Fix32.thisnode.name3.A_CV set to Dolomita by SC4BP01::BATCH RECIPE                                 
14/09/2004 05:40:00.3 [SBP01   ] Fix32.thisnode.name4.A_CV set to Calcario by SC4BP01::BATCH RECIPE                                 
14/09/2004 05:40:00.3 [SBP01   ] Fix32.thisnode.name5.A_CV set to Reserva by SC4BP01::BATCH RECIPE                                  
14/09/2004 05:40:00.3 [SBP01   ] Fix32.thisnode.name6.A_CV set to Barrilha by SC4BP01::BATCH RECIPE                                 
14/09/2004 05:40:00.3 [SBP01   ] Fix32.thisnode.name7.A_CV set to Feldspato by SC4BP01::BATCH RECIPE                                
14/09/2004 05:40:00.3 [SBP01   ] Fix32.thisnode.name8.A_CV set to Sulfato by SC4BP01::BATCH RECIPE                                  
14/09/2004 05:40:00.3 [SBP01   ] Fix32.thisnode.name9.A_CV set to Po de EP by SC4BP01::BATCH RECIPE                                 
14/09/2004 05:40:00.3 [SBP01   ] Fix32.thisnode.name10.A_CV set to Grafite by SC4BP01::BATCH RECIPE                                 
14/09/2004 05:40:00.4 [SBP01   ] Fix32.thisnode.name11.A_CV set to Ferro by SC4BP01::BATCH RECIPE                                   
14/09/2004 05:40:00.4 [SBP01   ] Fix32.thisnode.name12.A_CV set to Nitrato by SC4BP01::BATCH RECIPE                                 
14/09/2004 05:40:00.4 [SBP01   ] Fix32.thisnode.name14.A_CV set to Selenio by SC4BP01::BATCH RECIPE                                 
14/09/2004 05:40:00.4 [SBP01   ] Fix32.thisnode.name15.A_CV set to Cobalto by SC4BP01::BATCH RECIPE                                 
14/09/2004 05:40:00.4 [SBP01   ] Fix32.thisnode.name16.A_CV set to Ferro by SC4BP01::BATCH RECIPE                                   
14/09/2004 05:40:00.5 [SBP01   ] Fix32.thisnode.name20.A_CV set to Caco by SC4BP01::BATCH RECIPE                                    
14/09/2004 05:40:00.5 [SBP01   ] Fix32.thisnode.name50.A_CV set to  gua by SC4BP01::BATCH RECIPE                                    
14/09/2004 05:40:00.5 [SBP01   ] Fix32.thisnode.name51.A_CV set to Vapor by SC4BP01::BATCH RECIPE                                   
14/09/2004 05:40:00.5 [SBP01   ] Fix32.thisnode.name201.A_CV set to Mst 1 seco by SC4BP01::BATCH RECIPE                             
14/09/2004 05:40:00.5 [SBP01   ] Fix32.thisnode.name202.A_CV set to Mst 2 seco by SC4BP01::BATCH RECIPE                             
14/09/2004 05:40:00.5 [SBP01   ] Fix32.thisnode.name203.A_CV set to Mst 1  mido by SC4BP01::BATCH RECIPE                            
14/09/2004 05:40:00.5 [SBP01   ] Fix32.thisnode.name204.A_CV set to Mst 2  mido by SC4BP01::BATCH RECIPE                            
14/09/2004 05:41:43.4 [SBP01   ] S1_MANUAL_MOISTURE                               427      S1  manual  moisture                    
14/09/2004 05:41:43.4 [SBP01   ] Fix32.SBP01.S1_manual_moisture.F_CV set to 427 by SC4BP01::BATCH RECIPE                            
14/09/2004 05:41:56.2 [SBP01   ] Fix32.sbp01.alltime1.f_cv set to 1 by SC4BP01::BATCH RECIPE                                        
14/09/2004 05:43:26.8 [SCE01   ] CE_M604_ANM_SAFETY_AREA ALARM is acknowledged by WC4CE01::COLD END OPERATOR                        
14/09/2004 05:43:26.9 [SCE01   ] CE_M604_ANM_SAFETY_AREA ALARM is acknowledged by WC4CE01::COLD END OPERATOR                        
14/09/2004 05:43:59.8 [SBP01   ] Fix32.thisnode.name1.A_CV set to Areia 1 by SC4BP01::BATCH RECIPE                                  
14/09/2004 05:43:59.9 [SBP01   ] Fix32.thisnode.name2.A_CV set to Areia 2 by SC4BP01::BATCH RECIPE                                  
14/09/2004 05:43:59.9 [SBP01   ] Fix32.thisnode.name3.A_CV set to Dolomita by SC4BP01::BATCH RECIPE                                 
14/09/2004 05:43:59.9 [SBP01   ] Fix32.thisnode.name4.A_CV set to Calcario by SC4BP01::BATCH RECIPE                                 
14/09/2004 05:43:59.9 [SBP01   ] Fix32.thisnode.name5.A_CV set to Reserva by SC4BP01::BATCH RECIPE                                  
14/09/2004 05:43:59.9 [SBP01   ] Fix32.thisnode.name6.A_CV set to Barrilha by SC4BP01::BATCH RECIPE                                 
14/09/2004 05:44:00.0 [SBP01   ] Fix32.thisnode.name7.A_CV set to Feldspato by SC4BP01::BATCH RECIPE                                
14/09/2004 05:44:00.0 [SBP01   ] Fix32.thisnode.name8.A_CV set to Sulfato by SC4BP01::BATCH RECIPE                                  
14/09/2004 05:44:00.0 [SBP01   ] Fix32.thisnode.name9.A_CV set to Po de EP by SC4BP01::BATCH RECIPE                                 
14/09/2004 05:44:00.0 [SBP01   ] Fix32.thisnode.name10.A_CV set to Grafite by SC4BP01::BATCH RECIPE                                 
14/09/2004 05:44:00.0 [SBP01   ] Fix32.thisnode.name11.A_CV set to Ferro by SC4BP01::BATCH RECIPE                                   
14/09/2004 05:44:00.0 [SBP01   ] Fix32.thisnode.name12.A_CV set to Nitrato by SC4BP01::BATCH RECIPE                                 
14/09/2004 05:44:00.1 [SBP01   ] Fix32.thisnode.name14.A_CV set to Selenio by SC4BP01::BATCH RECIPE                                 
14/09/2004 05:44:00.1 [SBP01   ] Fix32.thisnode.name15.A_CV set to Cobalto by SC4BP01::BATCH RECIPE                                 
14/09/2004 05:44:00.1 [SBP01   ] Fix32.thisnode.name16.A_CV set to Ferro by SC4BP01::BATCH RECIPE                                   
14/09/2004 05:44:00.1 [SBP01   ] Fix32.thisnode.name20.A_CV set to Caco by SC4BP01::BATCH RECIPE                                    
14/09/2004 05:44:00.1 [SBP01   ] Fix32.thisnode.name50.A_CV set to  gua by SC4BP01::BATCH RECIPE                                    
14/09/2004 05:44:00.2 [SBP01   ] Fix32.thisnode.name51.A_CV set to Vapor by SC4BP01::BATCH RECIPE                                   
14/09/2004 05:44:00.2 [SBP01   ] Fix32.thisnode.name201.A_CV set to Mst 1 seco by SC4BP01::BATCH RECIPE                             
14/09/2004 05:44:00.2 [SBP01   ] Fix32.thisnode.name202.A_CV set to Mst 2 seco by SC4BP01::BATCH RECIPE                             
14/09/2004 05:44:00.2 [SBP01   ] Fix32.thisnode.name203.A_CV set to Mst 1  mido by SC4BP01::BATCH RECIPE                            
14/09/2004 05:44:00.3 [SBP01   ] Fix32.thisnode.name204.A_CV set to Mst 2  mido by SC4BP01::BATCH RECIPE                            
14/09/2004 05:47:59.8 [SBP01   ] Fix32.thisnode.name1.A_CV set to Areia 1 by SC4BP01::BATCH RECIPE                                  
14/09/2004 05:47:59.8 [SBP01   ] Fix32.thisnode.name2.A_CV set to Areia 2 by SC4BP01::BATCH RECIPE                                  
14/09/2004 05:47:59.8 [SBP01   ] Fix32.thisnode.name3.A_CV set to Dolomita by SC4BP01::BATCH RECIPE                                 
14/09/2004 05:47:59.9 [SBP01   ] Fix32.thisnode.name4.A_CV set to Calcario by SC4BP01::BATCH RECIPE                                 
14/09/2004 05:47:59.9 [SBP01   ] Fix32.thisnode.name5.A_CV set to Reserva by SC4BP01::BATCH RECIPE                                  
14/09/2004 05:47:59.9 [SBP01   ] Fix32.thisnode.name6.A_CV set to Barrilha by SC4BP01::BATCH RECIPE                                 
14/09/2004 05:47:59.9 [SBP01   ] Fix32.thisnode.name7.A_CV set to Feldspato by SC4BP01::BATCH RECIPE                                
14/09/2004 05:47:59.9 [SBP01   ] Fix32.thisnode.name8.A_CV set to Sulfato by SC4BP01::BATCH RECIPE                                  
14/09/2004 05:47:59.9 [SBP01   ] Fix32.thisnode.name9.A_CV set to Po de EP by SC4BP01::BATCH RECIPE                                 
14/09/2004 05:48:00.0 [SBP01   ] Fix32.thisnode.name10.A_CV set to Grafite by SC4BP01::BATCH RECIPE                                 
14/09/2004 05:48:00.0 [SBP01   ] Fix32.thisnode.name11.A_CV set to Ferro by SC4BP01::BATCH RECIPE                                   
14/09/2004 05:48:00.0 [SBP01   ] Fix32.thisnode.name12.A_CV set to Nitrato by SC4BP01::BATCH RECIPE                                 
14/09/2004 05:48:00.0 [SBP01   ] Fix32.thisnode.name14.A_CV set to Selenio by SC4BP01::BATCH RECIPE                                 
14/09/2004 05:48:00.1 [SBP01   ] Fix32.thisnode.name15.A_CV set to Cobalto by SC4BP01::BATCH RECIPE                                 
14/09/2004 05:48:00.1 [SBP01   ] Fix32.thisnode.name16.A_CV set to Ferro by SC4BP01::BATCH RECIPE                                   
14/09/2004 05:48:00.1 [SBP01   ] Fix32.thisnode.name20.A_CV set to Caco by SC4BP01::BATCH RECIPE                                    
14/09/2004 05:48:00.1 [SBP01   ] Fix32.thisnode.name50.A_CV set to  gua by SC4BP01::BATCH RECIPE                                    
14/09/2004 05:48:00.1 [SBP01   ] Fix32.thisnode.name51.A_CV set to Vapor by SC4BP01::BATCH RECIPE                                   
14/09/2004 05:48:00.1 [SBP01   ] Fix32.thisnode.name201.A_CV set to Mst 1 seco by SC4BP01::BATCH RECIPE                             
14/09/2004 05:48:00.2 [SBP01   ] Fix32.thisnode.name202.A_CV set to Mst 2 seco by SC4BP01::BATCH RECIPE                             
14/09/2004 05:48:00.2 [SBP01   ] Fix32.thisnode.name203.A_CV set to Mst 1  mido by SC4BP01::BATCH RECIPE                            
14/09/2004 05:48:00.2 [SBP01   ] Fix32.thisnode.name204.A_CV set to Mst 2  mido by SC4BP01::BATCH RECIPE                            
14/09/2004 05:49:50.9 [SHE01   ] '2#T103_30:TT_T213'            LoLevel  Alarm Off   622.33 Deg C    Pyro Exit End Centre Temp.     
14/09/2004 05:51:59.8 [SBP01   ] Fix32.thisnode.name1.A_CV set to Areia 1 by SC4BP01::BATCH RECIPE                                  
14/09/2004 05:51:59.8 [SBP01   ] Fix32.thisnode.name2.A_CV set to Areia 2 by SC4BP01::BATCH RECIPE                                  
14/09/2004 05:51:59.8 [SBP01   ] Fix32.thisnode.name3.A_CV set to Dolomita by SC4BP01::BATCH RECIPE                                 
14/09/2004 05:51:59.9 [SBP01   ] Fix32.thisnode.name4.A_CV set to Calcario by SC4BP01::BATCH RECIPE                                 
14/09/2004 05:51:59.9 [SBP01   ] Fix32.thisnode.name5.A_CV set to Reserva by SC4BP01::BATCH RECIPE                                  
14/09/2004 05:51:59.9 [SBP01   ] Fix32.thisnode.name6.A_CV set to Barrilha by SC4BP01::BATCH RECIPE                                 
14/09/2004 05:51:59.9 [SBP01   ] Fix32.thisnode.name7.A_CV set to Feldspato by SC4BP01::BATCH RECIPE                                
14/09/2004 05:51:59.9 [SBP01   ] Fix32.thisnode.name8.A_CV set to Sulfato by SC4BP01::BATCH RECIPE                                  
14/09/2004 05:52:00.0 [SBP01   ] Fix32.thisnode.name9.A_CV set to Po de EP by SC4BP01::BATCH RECIPE                                 
14/09/2004 05:52:00.0 [SBP01   ] Fix32.thisnode.name10.A_CV set to Grafite by SC4BP01::BATCH RECIPE                                 
14/09/2004 05:52:00.0 [SBP01   ] Fix32.thisnode.name11.A_CV set to Ferro by SC4BP01::BATCH RECIPE                                   
14/09/2004 05:52:00.0 [SBP01   ] Fix32.thisnode.name12.A_CV set to Nitrato by SC4BP01::BATCH RECIPE                                 
14/09/2004 05:52:00.0 [SBP01   ] Fix32.thisnode.name14.A_CV set to Selenio by SC4BP01::BATCH RECIPE                                 
14/09/2004 05:52:00.1 [SBP01   ] Fix32.thisnode.name15.A_CV set to Cobalto by SC4BP01::BATCH RECIPE                                 
14/09/2004 05:52:00.1 [SBP01   ] Fix32.thisnode.name16.A_CV set to Ferro by SC4BP01::BATCH RECIPE                                   
14/09/2004 05:52:00.1 [SBP01   ] Fix32.thisnode.name20.A_CV set to Caco by SC4BP01::BATCH RECIPE                                    
14/09/2004 05:52:00.1 [SBP01   ] Fix32.thisnode.name50.A_CV set to  gua by SC4BP01::BATCH RECIPE                                    
14/09/2004 05:52:00.1 [SBP01   ] Fix32.thisnode.name51.A_CV set to Vapor by SC4BP01::BATCH RECIPE                                   
14/09/2004 05:52:00.2 [SBP01   ] Fix32.thisnode.name201.A_CV set to Mst 1 seco by SC4BP01::BATCH RECIPE                             
14/09/2004 05:52:00.2 [SBP01   ] Fix32.thisnode.name202.A_CV set to Mst 2 seco by SC4BP01::BATCH RECIPE                             
14/09/2004 05:52:00.2 [SBP01   ] Fix32.thisnode.name203.A_CV set to Mst 1  mido by SC4BP01::BATCH RECIPE                            
14/09/2004 05:52:00.2 [SBP01   ] Fix32.thisnode.name204.A_CV set to Mst 2  mido by SC4BP01::BATCH RECIPE                            
14/09/2004 05:55:59.8 [SBP01   ] Fix32.thisnode.name1.A_CV set to Areia 1 by SC4BP01::BATCH RECIPE                                  
14/09/2004 05:55:59.8 [SBP01   ] Fix32.thisnode.name2.A_CV set to Areia 2 by SC4BP01::BATCH RECIPE                                  
14/09/2004 05:55:59.9 [SBP01   ] Fix32.thisnode.name3.A_CV set to Dolomita by SC4BP01::BATCH RECIPE                                 
14/09/2004 05:55:59.9 [SBP01   ] Fix32.thisnode.name4.A_CV set to Calcario by SC4BP01::BATCH RECIPE                                 
14/09/2004 05:55:59.9 [SBP01   ] Fix32.thisnode.name5.A_CV set to Reserva by SC4BP01::BATCH RECIPE                                  
14/09/2004 05:55:59.9 [SBP01   ] Fix32.thisnode.name6.A_CV set to Barrilha by SC4BP01::BATCH RECIPE                                 
14/09/2004 05:55:59.9 [SBP01   ] Fix32.thisnode.name7.A_CV set to Feldspato by SC4BP01::BATCH RECIPE                                
14/09/2004 05:56:00.0 [SBP01   ] Fix32.thisnode.name8.A_CV set to Sulfato by SC4BP01::BATCH RECIPE                                  
14/09/2004 05:56:00.0 [SBP01   ] Fix32.thisnode.name9.A_CV set to Po de EP by SC4BP01::BATCH RECIPE                                 
14/09/2004 05:56:00.0 [SBP01   ] Fix32.thisnode.name10.A_CV set to Grafite by SC4BP01::BATCH RECIPE                                 
14/09/2004 05:56:00.0 [SBP01   ] Fix32.thisnode.name11.A_CV set to Ferro by SC4BP01::BATCH RECIPE                                   
14/09/2004 05:56:00.0 [SBP01   ] Fix32.thisnode.name12.A_CV set to Nitrato by SC4BP01::BATCH RECIPE                                 
14/09/2004 05:56:00.0 [SBP01   ] Fix32.thisnode.name14.A_CV set to Selenio by SC4BP01::BATCH RECIPE                                 
14/09/2004 05:56:00.0 [SBP01   ] Fix32.thisnode.name15.A_CV set to Cobalto by SC4BP01::BATCH RECIPE                                 
14/09/2004 05:56:00.1 [SBP01   ] Fix32.thisnode.name16.A_CV set to Ferro by SC4BP01::BATCH RECIPE                                   
14/09/2004 05:56:00.1 [SBP01   ] Fix32.thisnode.name20.A_CV set to Caco by SC4BP01::BATCH RECIPE                                    
14/09/2004 05:56:00.1 [SBP01   ] Fix32.thisnode.name50.A_CV set to  gua by SC4BP01::BATCH RECIPE                                    
14/09/2004 05:56:00.1 [SBP01   ] Fix32.thisnode.name51.A_CV set to Vapor by SC4BP01::BATCH RECIPE                                   
14/09/2004 05:56:00.2 [SBP01   ] Fix32.thisnode.name201.A_CV set to Mst 1 seco by SC4BP01::BATCH RECIPE                             
14/09/2004 05:56:00.2 [SBP01   ] Fix32.thisnode.name202.A_CV set to Mst 2 seco by SC4BP01::BATCH RECIPE                             
14/09/2004 05:56:00.2 [SBP01   ] Fix32.thisnode.name203.A_CV set to Mst 1  mido by SC4BP01::BATCH RECIPE                            
14/09/2004 05:56:00.3 [SBP01   ] Fix32.thisnode.name204.A_CV set to Mst 2  mido by SC4BP01::BATCH RECIPE                            
14/09/2004 05:59:12.0 [SCE01   ] CE_M601_ANM_SAFETY_AREA        CFN             CLOSE      CE M601 SAFETY AREA                     
14/09/2004 05:59:12.4 [SCE01   ] CE_M601_ANM_SAFETY_AREA        CFN             CLOSE      CE M601 SAFETY AREA                     
14/09/2004 05:59:27.4 [SCE01   ] CE_M601_ANM_SAFETY_AREA        OK               OPEN      CE M601 SAFETY AREA                     
14/09/2004 05:59:28.0 [SCE01   ] CE_M601_ANM_SAFETY_AREA        OK               OPEN      CE M601 SAFETY AREA                     
14/09/2004 06:00:00.3 [SBP01   ] Fix32.thisnode.name1.A_CV set to Areia 1 by SC4BP01::BATCH RECIPE                                  
14/09/2004 06:00:00.3 [SBP01   ] Fix32.thisnode.name2.A_CV set to Areia 2 by SC4BP01::BATCH RECIPE                                  
14/09/2004 06:00:00.3 [SBP01   ] Fix32.thisnode.name3.A_CV set to Dolomita by SC4BP01::BATCH RECIPE                                 
14/09/2004 06:00:00.4 [SBP01   ] Fix32.thisnode.name4.A_CV set to Calcario by SC4BP01::BATCH RECIPE                                 
14/09/2004 06:00:00.4 [SBP01   ] Fix32.thisnode.name5.A_CV set to Reserva by SC4BP01::BATCH RECIPE                                  
14/09/2004 06:00:00.4 [SBP01   ] Fix32.thisnode.name6.A_CV set to Barrilha by SC4BP01::BATCH RECIPE                                 
14/09/2004 06:00:00.4 [SBP01   ] Fix32.thisnode.name7.A_CV set to Feldspato by SC4BP01::BATCH RECIPE                                
14/09/2004 06:00:00.4 [SBP01   ] Fix32.thisnode.name8.A_CV set to Sulfato by SC4BP01::BATCH RECIPE                                  
14/09/2004 06:00:00.5 [SBP01   ] Fix32.thisnode.name9.A_CV set to Po de EP by SC4BP01::BATCH RECIPE                                 
14/09/2004 06:00:00.5 [SBP01   ] Fix32.thisnode.name10.A_CV set to Grafite by SC4BP01::BATCH RECIPE                                 
14/09/2004 06:00:00.5 [SBP01   ] Fix32.thisnode.name11.A_CV set to Ferro by SC4BP01::BATCH RECIPE                                   
14/09/2004 06:00:00.6 [SBP01   ] Fix32.thisnode.name12.A_CV set to Nitrato by SC4BP01::BATCH RECIPE                                 
14/09/2004 06:00:00.6 [SBP01   ] Fix32.thisnode.name14.A_CV set to Selenio by SC4BP01::BATCH RECIPE                                 
14/09/2004 06:00:00.6 [SBP01   ] Fix32.thisnode.name15.A_CV set to Cobalto by SC4BP01::BATCH RECIPE                                 
14/09/2004 06:00:00.6 [SBP01   ] Fix32.thisnode.name16.A_CV set to Ferro by SC4BP01::BATCH RECIPE                                   
14/09/2004 06:00:00.6 [SBP01   ] Fix32.thisnode.name20.A_CV set to Caco by SC4BP01::BATCH RECIPE                                    
14/09/2004 06:00:00.7 [SBP01   ] Fix32.thisnode.name50.A_CV set to  gua by SC4BP01::BATCH RECIPE                                    
14/09/2004 06:00:00.7 [SBP01   ] Fix32.thisnode.name51.A_CV set to Vapor by SC4BP01::BATCH RECIPE                                   
14/09/2004 06:00:00.7 [SBP01   ] Fix32.thisnode.name201.A_CV set to Mst 1 seco by SC4BP01::BATCH RECIPE                             
14/09/2004 06:00:00.7 [SBP01   ] Fix32.thisnode.name202.A_CV set to Mst 2 seco by SC4BP01::BATCH RECIPE                             
14/09/2004 06:00:00.7 [SBP01   ] Fix32.thisnode.name203.A_CV set to Mst 1  mido by SC4BP01::BATCH RECIPE                            
14/09/2004 06:00:00.8 [SBP01   ] Fix32.thisnode.name204.A_CV set to Mst 2  mido by SC4BP01::BATCH RECIPE                            
14/09/2004 06:00:48.4 [SCE01   ] Fix32.SCE01.CUT_xc1_REM_PRESSURE.F_CV set to 950 by WC4CE04::COLD END OPERATOR                     
14/09/2004 06:00:57.7 [SCE01   ] CE_M601_ANM_SAFETY_AREA ALARM is acknowledged by WC4CE04::COLD END OPERATOR                        
